Index,Time,Raw Acceleration X,Raw Acceleration Y,Raw Acceleration Z,Acceleration X,Acceleration Y,Acceleration Z,Angular Velocity X,Angular Velocity Y,Angular Velocity Z,Orientation X,Orientation Y,Orientation Z,Punch Type
0,0,0.1475067138671875,-0.427398681640625,-0.7834014892578125,0.12099652068828402,0.5720707638091354,-0.8023233620500511,0.3785931169986725,-1.1302852630615234,-0.5302659869194031,0.018928525353690044,-0.05648418483108891,-0.026510193178903477,None
1,0.05,0.1549835205078125,-0.3466796875,-0.9578094482421875,0.13505022826753516,0.6523800716151852,-0.9963095985947733,0.3917533755302429,-1.5712740421295166,0.13157373666763306,0.038507801383240864,-0.13466756647768874,-0.019933292240277352,None
2,0.1,-0.1825714111328125,-0.4267120361328125,-0.9177093505859375,-0.20366234883623277,0.5707281092464728,-0.986034519685916,0.5975270867347717,-0.7191376686096191,-0.02315778285264969,0.0683403706340266,-0.17020218940022627,-0.021090937703420267,None
3,0.15,-0.068572998046875,-0.4495086669921875,-0.865814208984375,-0.08875913315348212,0.5459607962458571,-0.9587285120276474,0.49347707629203796,-0.8317185044288635,0.018099907785654068,0.09293323919299655,-0.2110223789194206,-0.02018613510660712,None
4,0.199,-0.1494903564453125,-0.4739532470703125,-0.85443115234375,-0.18448863580801253,0.5200980338950414,-0.9575678153341216,0.2063284069299698,-0.5080714821815491,-0.2963584363460541,0.10319988607190544,-0.2357831379824137,-0.03499827936270004,None
5,0.249,-0.175384521484375,-0.5182647705078125,-0.864105224609375,-0.0039027510843047675,-0.011532707549887777,-0.01922853609745756,0.8019052147865295,-0.8724920749664307,-0.04687536507844925,-0.8575797662613149,-0.27794000619973,0.17148177040007023,None
6,0.299,-0.199462890625,-0.568450927734375,-0.762115478515625,0.005859110767571396,0.01669792782551316,0.02238671560565475,0.8164151906967163,-1.4085110425949097,-0.47532153129577637,-0.8015802827317619,-0.3448458005712804,0.2053220013925714,None
7,0.349,-0.235107421875,-0.6435546875,-0.6424407958984375,0.015209732104160767,0.04163328538584399,0.04156122473919266,0.43371495604515076,-1.0787030458450317,-0.3180384337902069,-0.7064940409903624,-0.3949465368060071,0.25031715397916077,None
8,0.399,-0.31219482421875,-0.703643798828125,-0.72906494140625,-0.017738996002101937,-0.039981234684307476,-0.041425671015661414,0.6379461288452148,-0.8201391100883484,-0.4575987160205841,-0.7195400116791422,-0.43227721901519534,0.29445582821664806,None
9,0.449,-0.46942138671875,-0.6575469970703125,-0.987579345703125,-0.17225663250556578,0.034648915019406146,-0.32988798333039304,0.8659409284591675,0.3798338770866394,0.056716807186603546,-0.6888073967327754,-0.4150747084653475,0.2971647542131842,None
10,0.498,-0.610107421875,-0.92010498046875,-0.78485107421875,-0.3100532771098442,-0.16829698687593886,-0.1976950038429064,1.935997486114502,0.05781403183937073,0.06055042892694473,-0.6155177933987359,-0.412443054230705,0.3000541447651558,None
11,0.548,-0.2375335693359375,-0.7860260009765625,-0.4980010986328125,0.009808122837072442,0.032456210683247555,0.020563223808924502,2.7194385528564453,-1.8507059812545776,-1.046282172203064,-0.5351936900656997,-0.4948563510471219,0.24734169217300994,None
12,0.598,-0.190948486328125,-0.791900634765625,-0.3077850341796875,0.02832989466922403,0.11748960152975785,0.045664240480495055,2.0771164894104004,-2.364346981048584,-0.7987541556358337,-0.362265982849304,-0.5938912703849378,0.21927838099734903,None
13,0.648,-0.2510833740234375,-0.9935760498046875,-0.3477325439453125,-0.019071118966198092,-0.07546739054901175,-0.026412137959324733,1.4361886978149414,-2.0689573287963867,-0.6303278803825378,-0.3303342828767834,-0.6737964820658091,0.2320122550572394,None
14,0.698,-0.3256988525390625,-1.07818603515625,-0.5610504150390625,-0.09611732898908237,-0.13820965950546316,-0.30858905707931317,1.4853477478027344,-1.9183404445648193,-0.049963563680648804,-0.2593898062722562,-0.7414654592509436,0.22958152354998013,None
15,0.748,-0.9425506591796875,-1.567596435546875,-0.9712982177734375,-0.7343464045162221,-0.5941011945872939,-0.8766514842372084,3.3094263076782227,-2.7308366298675537,-0.438181608915329,-0.09676735443677005,-0.8258982984804274,0.20820425466346537,None
16,0.797,-0.374237060546875,-1.36944580078125,-0.10968017578125,-0.24129905278082409,-0.3955675729213727,-0.29376896792161444,5.674824237823486,-2.7492003440856934,-1.5281181335449219,0.18573733084429073,-0.8953665416224702,0.13293800776605091,None
17,0.847,0.2609710693359375,-0.8474273681640625,0.3261871337890625,-0.015248790825579561,0.049515996964287434,-0.019059428256938793,6.24945068359375,-2.682199716567993,-1.4961318969726562,0.3592222941841528,-0.946871127967619,-0.27621986016151706,None
18,0.897,1.10247802734375,-0.3279571533203125,0.789764404296875,0.7736226319207318,0.4523307889044159,0.2577823969696824,4.6191205978393555,-1.7421225309371948,-1.1046518087387085,0.5633133324852656,-0.9712602863500767,-0.3288553954230183,None
19,0.951,2.7196197509765625,0.36004638671875,0.7781219482421875,2.354922105532955,1.0102308425863773,0.11159677935806656,3.988346576690674,-0.04753076657652855,-0.7643352150917053,0.7158270406626571,-0.9718232063440082,-0.36469764544360767,None
20,1.001,3.90032958984375,2.4112091064453125,0.230194091796875,3.7348746583664276,3.0749416646146304,-0.49924662332385894,0.6943966150283813,-0.3252164423465729,4.141775608062744,0.7396348416933545,-0.9755274122284747,-0.16545493147732238,None
21,1.05,-5.30621337890625,1.615997314453125,0.9697418212890625,-5.095598544140366,2.0678816569364065,0.10288431720030389,5.15468692779541,1.255025863647461,7.56846284866333,0.8867480397850491,-0.9598187972893729,0.21061483476588325,None
22,1.1,-4.9363861083984375,-2.6676788330078125,-1.6588287353515625,-4.607295206443181,-2.1550356864169395,-2.451858484165366,-1.8666296005249023,4.20932674407959,2.4627366065979004,0.839808558148185,-0.8800129397191541,0.3290909019552564,None
23,1.15,-1.4907379150390625,-0.2799072265625,2.250885009765625,-1.2690843570572297,0.22653351084576934,1.4175858559634849,0.5552901029586792,-3.1082143783569336,-2.2366161346435547,0.8545558203076895,-0.942922568760191,0.22165355798183287,None
24,1.2,-0.3564605712890625,0.5489349365234375,-0.0000457763671875,-0.18615871011121843,1.1567568826497343,-0.775642164888049,-2.372218370437622,0.07212506234645844,-1.0474777221679688,0.7870943091500341,-0.9417155142224195,0.17030186117784407,Straight
25,1.25,-1.7759857177734375,-0.51739501953125,1.0955810546875,-1.6921923013072868,0.18511522584826823,0.38885761620980286,-2.35392427444458,-0.6659823060035706,-1.7448842525482178,0.7092176523137649,-0.9523935560295699,0.0837934164661507,None
26,1.3,-1.04388427734375,-0.06109619140625,0.683258056640625,-1.1268639315550524,0.8397626397075553,0.2571503902096614,-6.931426048278809,4.534561634063721,-3.339339256286621,0.4275822944924352,-0.8594868588382568,-0.08297965421130249,None
27,1.349,0.2234344482421875,-0.25665283203125,0.66278076171875,-0.01470467860906216,0.700286696388075,0.4967792701256797,-5.401092052459717,5.918170928955078,-3.147484540939331,0.17091864110049224,-0.6730732523500442,-0.23813912685124966,None
28,1.399,0.3714599609375,-0.8931884765625,0.4433441162109375,0.022378323161685088,-0.053809461246812074,0.02670892948828335,-2.448432683944702,1.6341750621795654,-2.4657301902770996,0.44460420735746026,-0.6104650765517078,-0.3490816377758149,None
29,1.449,0.216949462890625,-0.7579345703125,0.2235107421875,-0.04780247593992992,0.16700271380561238,-0.04924818311774537,-1.7723549604415894,0.5565383434295654,-1.2042111158370972,0.2828520623965578,-0.5881914633479793,-0.2647519388305549,None
30,1.499,0.3254241943359375,-1.1195220947265625,0.120269775390625,0.01321763272098525,-0.1916580686886299,-0.08367975775237499,-1.4080321788787842,-0.16277825832366943,-0.9913627505302429,0.21468050035548672,-0.5947540248882082,-0.31220656161495225,None
31,1.549,0.0152130126953125,-1.2435302734375,-0.344573974609375,-0.32746167822028993,-0.32068812575530414,-0.5204615144386894,-0.5606033802032471,-0.9285182952880859,-0.6449536681175232,0.18722312758786688,-0.6314219302151782,-0.34267469091560243,None
32,1.599,-0.0083465576171875,-1.1746826171875,-0.425628662109375,-0.39100601291014186,-0.26904350874350047,-0.6083567292793011,0.21518954634666443,-0.4863957464694977,-0.8582127094268799,0.19778130862457757,-0.6500918751801208,-0.38265945529295436,None
33,1.648,0.1717529296875,-0.9403076171875,-0.0912017822265625,-0.007118019768008715,0.038969514053284415,0.0037797089688508534,-0.1333436816930771,0.5736342668533325,-0.6281893849372864,-0.09653841012742813,-0.6280335245793472,-0.17887094945550872,None
34,1.698,0.3714752197265625,-0.8329315185546875,0.0281829833984375,-0.035643700626149966,0.079921244036954,-0.0027042068209692967,0.6894945502281189,0.10288830101490021,-0.8410323858261108,0.033816542795348216,-0.6240219185703325,-0.40711892035271247,None
35,1.748,0.39886474609375,-0.642059326171875,0.2708282470703125,-0.09790272346711687,0.1575956693974503,-0.06647572451483741,0.8388685584068298,-0.8262638449668884,0.05934321880340576,0.3886511286509102,-0.6557626887993123,-0.49676746956086687,None
36,1.798,0.27447509765625,-0.6211090087890625,0.2482452392578125,-0.10515499446275856,0.2379549727377468,-0.09510599315736151,0.3649366796016693,-0.7300752401351929,0.35938960313796997,0.37113500601969734,-0.68287884592211,-0.37963009211900856,None
37,1.848,0.16656494140625,-0.6827239990234375,0.01318359375,-0.07041252227911826,0.2886100663553123,-0.005573142107837541,0.20087797939777374,-1.1798818111419678,0.6910498142242432,0.019306683902215828,-0.7247629337732999,-0.23697746368536826,None
38,1.898,-0.33099365234375,-1.3137359619140625,-0.55853271484375,-0.5193943459593029,-0.3422538157099996,-0.7025036086102552,2.556368589401245,-3.0134620666503906,0.9944016933441162,0.14659610075136234,-0.8199727218406301,-0.18840069361555295,None
39,1.947,-0.947540283203125,-2.284423828125,-0.2997589111328125,-1.149532843614473,-1.3462266477127578,-0.5808017125083091,2.8784658908843994,-0.6925462484359741,-0.27717140316963196,0.2869578474029291,-0.8392979793493015,-0.20199256041134786,None
40,1.997,-0.1229095458984375,-1.7360076904296875,0.2179718017578125,-0.42303283279897297,-0.9181124280495592,-0.2729185652653753,4.990152359008789,0.196714386343956,-2.0285980701446533,0.5146138489486224,-0.8339100663737703,-0.30012328690053547,None
41,2.047,0.78759765625,-0.5171356201171875,1.394287109375,0.3610879095731922,0.14787434183128,0.7812200767439972,4.084436416625977,1.0883095264434814,-2.716170310974121,0.6778093735310794,-0.8026586468771127,-0.4265097466768078,None
42,2.097,1.9240264892578125,0.588165283203125,0.579071044921875,1.4656922356718165,1.1509153348012542,-0.10885488962055134,2.8074698448181152,0.5758364200592041,-0.7097936868667603,0.7740115791957451,-0.7851557971402641,-0.4583342535859961,None
43,2.147,1.9854583740234375,0.5419158935546875,0.6363983154296875,1.5864553748855925,0.8656380710041349,-0.2215064336575252,6.496455669403076,0.94435715675354,1.3138161897659302,0.9356072894669932,-0.7550496231079765,-0.39900299913784504,None
44,2.197,3.4380645751953125,1.4816436767578125,2.1670989990234375,3.09372909797622,1.7758389877643477,1.27553733648401,0.8418742418289185,2.8431496620178223,1.1779680252075195,0.9496350003633226,-0.654538714683508,-0.3443354772190922,None
45,2.246,-3.1651153564453125,3.336669921875,-2.2521820068359375,-3.023002060518134,3.417249542159461,-3.238747126792814,4.744625091552734,0.19155824184417725,9.882538795471191,0.9966810354350978,-0.647267628739122,0.14211329592717833,None
46,2.296,-6.8522491455078125,-1.053741455078125,-1.3888092041015625,-6.3959426504494825,-0.6087962563280422,-2.159398687988302,-8.842933654785156,7.291283130645752,6.624877452850342,0.8660034303308166,-0.3329499015029162,0.45630649505833,None
47,2.346,-1.3195953369140625,-0.9809722900390625,3.6993560791015625,-0.8588084086613803,-0.8009829485931352,2.8302880474047805,6.388474941253662,-4.135740756988525,0.10083473473787308,0.9792196771801576,-0.5194586403402213,0.46078692825268214,None
48,2.396,-0.5155181884765625,1.267333984375,0.0940704345703125,-0.19025309540309404,1.7097651208223823,-0.7416671490824666,-5.653265476226807,0.8084017634391785,-2.9517922401428223,0.8837958629320191,-0.4845049734031089,0.32526509307346846,None
49,2.446,-1.4553375244140625,-0.2518310546875,0.58599853515625,-1.2013891761808169,0.24466639438970106,-0.24406201654431026,-1.0434589385986328,-1.3233132362365723,-1.4906359910964966,0.8581940569782289,-0.5412835412763172,0.25394834823324575,Straight
50,2.496,-1.024627685546875,-0.123931884765625,1.102935791015625,-0.8970754402555409,0.6030878531493167,0.42827089241541705,-5.673539638519287,2.388411521911621,-2.5771915912628174,0.6802210440476573,-0.43725331755116253,0.12755224529133416,None
51,2.546,0.5067596435546875,-0.304595947265625,0.9827880859375,0.48341946425600235,0.6289986728466086,0.6252180629660553,-7.645904541015625,4.116288185119629,-3.0248594284057617,0.3576674584153206,-0.24423223687841814,-0.02334017929868513,None
52,2.595,0.622833251953125,-0.8435211181640625,0.3177947998046875,0.05437172352418762,-0.0736372004542265,0.027742659753987375,-4.542794704437256,2.4576125144958496,-1.608435869216919,0.3525570302371846,-0.1235308931743203,-0.5684615284289374,None
53,2.645,0.3945465087890625,-1.2194671630859375,0.3253173828125,-0.19047505694293476,-0.45178283192361146,0.06376330558116622,-0.6386329531669617,-0.8468202352523804,-0.40544018149375916,0.32250105727205536,-0.16542433621240213,-0.5850215657319973,None
54,2.695,-0.0157318115234375,-1.3226318359375,0.1559295654296875,-0.5964384963717352,-0.5489460610378242,-0.0974280235436607,-0.23815478384494781,-0.9989637136459351,0.10620366781949997,0.3112069615002407,-0.2144575708786715,-0.5807066848482977,None
55,2.745,-0.30450439453125,-1.2458953857421875,0.01983642578125,-0.8791903227622123,-0.4760593329406704,-0.2578117971561515,0.5935192704200745,-0.4645988345146179,0.14752288162708282,0.3392681174515151,-0.23708712676385452,-0.5746859282309623,None
56,2.795,-0.323486328125,-1.0634765625,0.2201385498046875,-0.908495096563285,-0.30604397394921834,-0.06979353646998393,0.38875147700309753,-0.275150865316391,-0.2534109652042389,0.35748760293935644,-0.2504295623484836,-0.585008768438285,None
57,2.845,-0.2656402587890625,-0.8904266357421875,0.1039581298828125,0.018465891985457117,0.0618977038779569,-0.0072266139408877356,0.2517313063144684,-0.08831148594617844,-0.39693403244018555,0.11596326139374145,-0.25470197834938396,0.2841061507745196,None
58,2.894,0.02398681640625,-0.6383819580078125,0.1226043701171875,-0.012888115365387615,0.3430025970367184,-0.06587532249420522,0.41680708527565,-0.7886722683906555,-0.4768131673336029,0.18860796707245628,-0.2926271668308485,-0.036874931771637615,None
59,2.944,0.1244964599609375,-0.41668701171875,0.0795745849609375,-0.15710088548677642,0.5258133326232246,-0.10041440345796601,0.8565874099731445,-1.3200410604476929,0.22675351798534393,0.18757984485609064,-0.3550571235233588,-0.2815973454477139,None
60,2.994,-0.0922698974609375,-0.50555419921875,0.177337646484375,0.07745534954640212,0.4243840980935001,-0.1488649036593827,1.3837180137634277,-1.906186580657959,0.8804144263267517,0.3310049618384612,-0.4424102767871957,0.16972524700733962,None
61,3.044,-0.1763763427734375,-0.744720458984375,0.5474853515625,0.011061164742554558,0.04670397148759564,-0.03433468214922197,0.16546939313411713,-1.2629066705703735,0.7285535335540771,0.5923179635539466,-0.49812046683472566,0.18743750751599206,None
62,3.094,-0.5927886962890625,-1.4851837158203125,0.379913330078125,-0.3624774085908634,-0.6783819330352989,-0.16417084912002178,-0.8122987747192383,0.32845696806907654,0.8768958449363708,0.559114859640608,-0.4838135538894885,0.23031128769819906,None
63,3.144,-0.4513092041015625,-2.238677978515625,0.31756591796875,-0.22326316615757008,-1.4671969235559472,-0.2764138682330616,1.256231427192688,-0.2018154114484787,-0.046543799340724945,0.6100545088264885,-0.49261992312675346,0.22804603794399242,None
64,3.193,-0.0517578125,-1.7591705322265625,0.915130615234375,0.12628479528897807,-1.1040914034570504,0.18084717890867597,3.7242960929870605,0.09994018077850342,-1.021468997001648,0.7462057301033006,-0.4882651708713267,0.17804260778897807,None
65,3.243,0.6396636962890625,-0.6268463134765625,1.2854156494140625,0.7198633828961241,-0.10482676588555295,0.43626100966874093,3.5451221466064453,-0.8837449550628662,-1.9742201566696167,0.8518987614473504,-0.5263380331875321,0.0801996866070616,None
66,3.293,1.14923095703125,0.0863189697265625,0.6035614013671875,1.1585548217788526,0.5092556239548325,-0.30254987880559847,2.289841890335083,-0.7324886322021484,-1.4192382097244263,0.906150668885608,-0.5571189634696564,0.009323864747602658,None
67,3.343,1.4358062744140625,0.0286865234375,0.5046844482421875,1.421299020802968,0.32122748657231964,-0.451458493205803,2.7957754135131836,-0.477407306432724,-0.47663524746894836,0.9562435724488648,-0.5767810987626089,-0.0145072536110945,None
68,3.393,2.418670654296875,0.50152587890625,0.8275909423828125,2.414061824718853,0.6969183528277787,-0.15312335843304958,2.005108594894409,0.6676304936408997,0.19797833263874054,0.9807247168100809,-0.54919550595479,-0.004608829578021945,None
69,3.443,-0.2912139892578125,1.758697509765625,-0.482513427734375,-0.04356953670607894,1.8181981641654281,-1.4495356080623898,2.704148769378662,1.1649744510650635,5.097141265869141,0.9981124015953894,-0.4996135027961138,0.24764445255173356,None
70,3.492,-6.438446044921875,-2.691375732421875,1.154449462890625,-6.020764478841073,-2.4988895005784655,0.2664792156936743,-3.040320634841919,4.168717384338379,3.6128785610198975,0.9773020257246222,-0.30954707471531384,0.41768156608080215,None
71,3.542,-0.981597900390625,0.6132965087890625,1.2476806640625,-0.8015406409030118,0.8546864194150261,0.294103035154502,-0.6892937421798706,-2.177232503890991,-4.996949672698975,0.9694217310547366,-0.41102514218338915,0.18005725948761317,None
72,3.592,-0.4526824951171875,0.150390625,-0.0289306640625,-0.2708847057037681,0.4885436908363322,-0.9522952008679174,-2.062331199645996,-1.3142057657241821,0.03539474308490753,0.9390122974762233,-0.46999806765268903,0.18179778941341942,None
73,3.642,-1.4058837890625,-0.9158935546875,0.773406982421875,-1.3296318476857838,-0.5154140080006673,-0.1397204862930853,-1.2453417778015137,-1.5356471538543701,-2.129767417907715,0.915793726558082,-0.5363200179960689,0.0762519413767162,Straight
74,3.692,-0.3958892822265625,-0.338653564453125,0.40374755859375,0.2047524645868498,0.17515036419504892,-0.20881673590164007,-1.1233441829681396,-0.737397313117981,-2.3383352756500244,0.7661667082569351,-0.5670671852806988,0.6006417468134123,None
75,3.742,0.554656982421875,-0.4004974365234375,0.67205810546875,1.060399693845127,0.1835629819554102,0.0371583201415141,-0.9154738783836365,-0.14900891482830048,-2.281217098236084,0.7359583790958097,-0.5731881099978917,0.5057427114232521,None
76,3.791,0.938751220703125,-0.4611968994140625,0.7591705322265625,1.3920728963786095,0.19061353346412357,0.15118811640031316,-1.5291767120361328,0.863585889339447,-1.1950855255126953,0.6820939790742034,-0.5372827037430647,0.4533216756754846,None
77,3.841,1.01776123046875,-0.3366241455078125,0.7599945068359375,1.4563626037887814,0.37331019390857334,0.20897538825727857,-1.8118208646774292,1.1935076713562012,-0.32893261313438416,0.6131415670508261,-0.48602583141948,0.4386013733200314,None
78,3.891,0.710693359375,-0.3466644287109375,0.7894134521484375,1.1927676305213195,0.366120339605685,0.27996053856901393,-0.7896744012832642,1.4601621627807617,0.9795787930488586,0.5814807251993458,-0.4209827396594424,0.4820742711463196,None
79,3.941,0.34698486328125,-0.6632080078125,0.9555511474609375,0.8827808935028205,0.050947249273169515,0.5051015023553973,-1.1565577983856201,-0.1712055653333664,1.2485905885696411,0.5334884896488064,-0.4287319804965446,0.5357960302215705,None
80,3.991,-0.1117401123046875,-1.0106658935546875,0.3397979736328125,-0.007514458394493953,-0.06796670104592462,0.022851218624468816,-1.3811709880828857,0.48832252621650696,1.4572113752365112,0.3186824028481471,-0.4065480815481704,0.10422565391019355,None
81,4.041,-0.0772247314453125,-1.2978363037109375,0.3981781005859375,0.07120802252576786,-0.3558377472745057,0.09716906879413328,-0.3010152280330658,-0.09616834670305252,0.8913599848747253,0.30438080919887467,-0.4109364761382651,0.14843275397108036,None
82,4.09,0.011077880859375,-1.112030029296875,0.477447509765625,0.15230992341523236,-0.16004526629759386,0.20582549082624868,-0.627031147480011,0.5243833661079407,-0.1455492079257965,0.2743721830279325,-0.3868949034084451,0.14123204255585736,None
83,4.14,0.464263916015625,-0.4953765869140625,0.4406585693359375,-0.109330426051232,0.11665721033830423,-0.10377155636408142,-1.0310100317001343,0.542447566986084,-0.2646646797657013,0.6646366357940259,-0.36174548284522834,-0.573594342066857,None
84,4.19,0.63604736328125,-0.1691131591796875,0.618499755859375,0.0979980373820083,0.507376554254219,0.11564332454176462,-1.7557499408721924,0.5182615518569946,0.8553181290626526,0.5965695391317095,-0.3374685759282412,-0.5380493258992417,None
85,4.24,0.14996337890625,-0.6283111572265625,0.387969970703125,-0.04905510050169107,0.20552929114348106,-0.12691035667032935,-1.2320382595062256,-0.8358485698699951,2.1306302547454834,0.5253903745182865,-0.376503205843721,-0.19901847940794107,None
86,4.29,-1.2270050048828125,-1.99505615234375,-0.0349884033203125,-1.3599395432534784,-1.1233077640114342,-0.5065635892113725,-1.1460556983947754,0.013740579597651958,1.3405410051345825,0.47579797867024876,-0.3758666428685203,-0.13293453837066585,None
87,4.34,-0.527557373046875,-1.4868927001953125,-0.0768585205078125,-0.6879837159526476,-0.6033698219822157,-0.5169161442071695,-0.6753478050231934,-0.06767012178897858,-0.5558672547340393,0.44583212398235816,-0.37899989173305765,-0.16042634290577268,None
88,4.39,-0.2191314697265625,-1.01373291015625,-0.214996337890625,-0.012246773163985453,-0.05665529015545856,-0.012015669791835826,-0.20527352392673492,0.4788283705711365,-0.4555153250694275,-0.20746919531600683,-0.35673808355393294,0.20688469656257705,None
89,4.439,-0.2548065185546875,-0.8657379150390625,0.0861968994140625,0.02626188934309326,0.08922814633565368,-0.008883969872396133,0.77683424949646,0.5390450954437256,-0.49357590079307556,0.09907479875797201,-0.3314326520212697,0.28106840789778076,None
90,4.489,-0.267059326171875,-0.7832183837890625,0.2761077880859375,0.03907995919931928,0.11461177155421431,-0.040404060205215475,0.6956309676170349,0.8575711250305176,-0.35198280215263367,0.3324750625649536,-0.2906854007315867,0.3061392853711943,None
91,4.539,-0.358642578125,-0.9360504150390625,0.199188232421875,-0.007721437732340852,-0.02015280793441332,0.004288446569008397,1.042736530303955,0.41155800223350525,0.17051129043102264,0.20813620453505105,-0.27093592774033337,0.35092114039265915,None
92,4.589,-0.822784423828125,-1.427490234375,0.283966064453125,-0.4633742704707829,-0.5524615262658472,-0.04030095768831743,2.9043962955474854,-0.48717790842056274,0.18162225186824799,0.3474861531573434,-0.29430104126936957,0.3594101533573421,None
93,4.639,-0.949249267578125,-1.3676300048828125,0.976104736328125,-0.6568912930274885,-0.4959724923297215,0.5827346872313393,1.3807411193847656,0.6524920463562012,-1.4188823699951172,0.41134201203493326,-0.2629702151306341,0.2923579745506365,None
94,4.689,-0.11016845703125,-0.574554443359375,0.5685882568359375,0.024873700848486113,0.1297222066134205,-0.12837516824337114,-0.3819654881954193,0.48659732937812805,-2.2162909507751465,0.7034067336985828,-0.23942115179977025,0.1350421578797361,None
95,4.738,0.372650146484375,-0.1171722412109375,0.3328094482421875,0.4340391536474351,0.5655677249227903,-0.395268520414501,0.746879518032074,-0.29536721110343933,-1.4805675745010376,0.729453779581256,-0.25373335640626266,0.06138900716306013,None
96,4.788,0.5728759765625,0.0032501220703125,0.643829345703125,0.633667582792545,0.6618080957013177,-0.10624116830138874,0.6549924612045288,0.2910557985305786,-0.01197037659585476,0.7514603550025554,-0.2396304471668545,0.06079160623004493,None
97,4.838,-0.1960601806640625,-1.16094970703125,0.351226806640625,-0.07946813847995471,-0.46651890876494184,-0.35882400993418706,-1.0750688314437866,0.7890642881393433,1.1205742359161377,0.7149266946266358,-0.20115019593601124,0.11659204218410779,None
98,4.888,-1.190216064453125,-2.7335662841796875,0.6558837890625,-1.1682670364324064,-2.0294272585926283,-0.05383902500948179,-0.1434359848499298,1.5124800205230713,-1.8981406688690186,0.709893833838805,-0.1265675931817894,0.02194902802071862,None
99,4.938,0.0272369384765625,-1.4403076171875,0.1958160400390625,-0.18457651619361046,-0.7084321229698427,-0.4518670007952229,-1.2980449199676514,2.995405673980713,-4.707618713378906,0.6627200834716238,0.02286031759123667,-0.21181345467017296,None
100,4.988,1.6914825439453125,0.8170623779296875,0.722564697265625,1.3005642142298028,1.3304754329148596,-0.041365858781996834,5.092372894287109,0.10586012154817581,-3.763979196548462,0.8299755547381387,0.02815159550714708,-0.39091832971550955,None
101,5.037,3.2738037109375,1.67510986328125,0.9154052734375,2.978476816305068,1.9670085830836994,0.005692592046031453,5.624826431274414,0.9351199865341187,2.0366289615631104,0.9521836264763334,0.07484127086405572,-0.2953268946324318,None
102,5.087,3.254302978515625,1.9525604248046875,1.5492401123046875,3.256845516684101,2.1001411442855322,0.5601933658173548,3.24737811088562,2.003671884536743,6.046803951263428,0.9890499433493458,0.17420159602524707,0.0025425381684762165,None
103,5.137,-3.98236083984375,3.3722076416015625,-1.4335784912109375,-3.4992551733180624,3.317800962512755,-2.3074485205867585,4.206028938293457,-2.580059051513672,10.03311538696289,0.998067495937131,0.04607563780867981,0.4831056665256876,None
104,5.187,-7.373504638671875,-1.6855926513671875,-1.5499114990234375,-6.658649367087329,-1.7100353127962264,-2.2487566156194188,-0.5443533062934875,5.574066638946533,5.844376087188721,0.9993889075950939,0.3191147838566249,0.7148552715845456,None
105,5.237,-2.38946533203125,-0.667510986328125,3.2097930908203125,-1.7563128041032212,-0.6652197484761083,2.4357694305828157,-0.7584339380264282,-3.07588791847229,-2.2159552574157715,0.9999956187399827,0.17016872831489158,0.6331525279280288,None
106,5.287,0.526824951171875,1.34246826171875,-0.709442138671875,1.1312651968894132,1.464263179493135,-1.4967273394480949,-3.0105104446411133,-1.336473822593689,-0.7311261296272278,0.9882441789159957,0.10398886607747489,0.6044402457175381,None
107,5.336,-2.436431884765625,-0.888580322265625,1.466339111328125,-1.886177381835588,-0.7401624057397357,0.6446383725799283,-0.5042096376419067,-1.6796863079071045,-1.327880859375,0.9840762822675772,0.02019151346908205,0.5502545029300369,Straight
108,5.386,-1.764068603515625,-0.0147247314453125,0.7607269287109375,-1.3753802115826868,0.25428849801269787,-0.1204956404242149,-2.3518192768096924,-1.4143084287643433,-3.6692276000976562,0.956427131494976,-0.050501045103496595,0.3886883919329383,None
109,5.436,-0.1240692138671875,-0.0004425048828125,0.7828369140625,0.08543770802030015,0.3652573549780896,-0.1240095239737018,-1.740622878074646,-0.42798250913619995,-3.7627391815185547,0.9274287114683242,-0.07185967203840493,0.20950692188748765,None
110,5.486,0.922332763671875,0.1251220703125,1.1126251220703125,0.96437524248751,0.6206498086637691,0.24505109612237475,-2.7125794887542725,0.26755526661872864,-3.3803157806396484,0.8683417928306386,-0.05851046146117938,0.042042478815635095,None
111,5.536,0.9676055908203125,-0.014373779296875,0.84552001953125,0.918877933607469,0.5488114347135925,0.020627280963057992,-1.6019792556762695,-1.2618014812469482,-1.8160367012023926,0.8258737922616074,-0.12133426817409744,-0.048727657212843466,None
112,5.586,1.1217041015625,-0.2223968505859375,0.6891021728515625,1.057805731770986,0.3913454814916012,-0.09781418112388451,-1.2667733430862427,-1.6036884784698486,-0.3038994371891022,0.7885277806417706,-0.20045115033012278,-0.063898369791514,None
113,5.635,0.7267913818359375,-0.330322265625,0.606475830078125,0.685695261140598,0.30768317436090575,-0.16245860627661712,-0.6044225096702576,-1.1733131408691406,0.4566847085952759,0.7695845832682042,-0.25754830559704184,-0.04109612069533957,None
114,5.685,0.7003631591796875,-0.474151611328125,0.4036102294921875,-0.04697864634240445,0.03180492944168467,-0.027073186221986012,-1.3781384229660034,-0.15601703524589539,0.9830883145332336,0.6481902897695225,-0.2650780861958179,-0.747341805522092,None
115,5.735,0.3894500732421875,-0.5980224609375,0.2517242431640625,-0.12518643352628578,0.19223079977910862,-0.08091527617768823,-0.9101036190986633,0.5380373597145081,1.5953974723815918,0.387959222671544,-0.23904579467527762,-0.5146365067684733,None
116,5.785,0.2995147705078125,-0.753082275390625,0.453094482421875,-0.02305985207656852,0.05798033213036602,-0.034884061723044146,-0.6023598909378052,0.4412306547164917,1.4356640577316284,0.515537075269491,-0.21756743029562287,-0.322574622584381,None
117,5.835,0.0366973876953125,-0.9242401123046875,0.2163543701171875,-0.0019341019442385005,0.048711221981068586,-0.011402757366884758,-0.23486363887786865,-0.1784144788980484,1.5168079137802124,0.22792726940316518,-0.226265688549941,-0.038631489639551,None
118,5.885,-0.021514892578125,-1.1098785400390625,0.593414306640625,-0.010161465835424743,-0.13668624798859763,0.3637017419107852,0.036983318626880646,0.024033697322010994,0.9998955130577087,0.22972737117038725,-0.22509500554466774,0.011353426742700257,None
119,5.935,0.0380859375,-0.9978179931640625,0.6271514892578125,0.06830207928340769,-0.014259257429761307,0.4491088029815483,-1.0543580055236816,0.1715850681066513,0.3773414194583893,0.1781240198161442,-0.2167277417585649,0.030216141783407688,None
120,5.984,0.144561767578125,-0.9041595458984375,0.5691070556640625,0.010471563129273498,-0.06549424458782993,0.041224180919623654,-1.6433367729187012,0.23929435014724731,0.04767404496669769,0.5326935609198694,-0.20503216671989075,-0.1340902044488515,None
121,6.034,0.1797332763671875,-0.8362579345703125,0.3290557861328125,-0.016382417732621557,0.07622365258819297,-0.0299929398424304,-1.1709051132202148,-0.3248438537120819,-0.045636992901563644,0.36615925907803243,-0.22090155483274534,-0.19611569409980906,None
122,6.084,0.1039581298828125,-1.119415283203125,0.0712890625,-0.03896952568017259,-0.20056409013262233,-0.2965209023842901,0.11761824041604996,-0.23063214123249054,1.0795259475708008,0.3716253913389268,-0.23213334973122532,-0.1429276555629851,None
123,6.134,-0.48052978515625,-1.6508941650390625,0.6685638427734375,-0.6362950061136162,-0.7461579747580934,0.2720923785594526,0.6450708508491516,0.47310149669647217,-0.2596653997898102,0.40137055059057186,-0.2090616398234938,-0.1557652209573662,None
124,6.184,-0.1665496826171875,-1.4417877197265625,0.5535430908203125,-0.4021988701984872,-0.5288473559265018,0.22036243031180364,-1.261580467224121,1.5330259799957275,-1.6296886205673218,0.3428355308507664,-0.13356366319029858,-0.23564918758129974,None
125,6.234,0.267974853515625,-1.0600738525390625,0.4403533935546875,-0.07194808830249877,-0.18166654440183938,0.10441739572648523,0.30683237314224243,1.205349087715149,-2.178968906402588,0.35720646717842186,-0.07362985184336494,-0.33992294181812377,None
126,6.283,0.6935882568359375,-0.8312835693359375,0.5029754638671875,0.2649893811265671,-0.011403152105202152,0.12337158456374953,1.366718053817749,0.7990897297859192,-1.9221292734146118,0.42015055803299106,-0.033735654773544316,-0.4285988757093704,None
127,6.333,0.864501953125,-0.5878143310546875,0.2730560302734375,0.06439685677327955,-0.043786361788284545,0.020339977265564912,2.624147653579712,0.35546356439590454,-1.0832756757736206,0.4212918312685838,-0.01596820021092654,-0.8001050963517204,None
128,6.383,0.876495361328125,-0.495574951171875,0.22174072265625,0.08878764742456136,0.0036187499930590006,-0.1392609479410979,3.824761390686035,0.381399542093277,0.4078250229358673,0.5859949153918399,0.003101093241039529,-0.7877077139035636,None
129,6.433,0.8097991943359375,-0.2156524658203125,0.3861541748046875,0.052064909500462386,0.1966291031392129,-0.11967451307406773,5.21662712097168,0.540200412273407,0.9449018239974976,0.7751412795998868,0.030106568842515734,-0.7577342848354751,None
130,6.483,2.0145416259765625,0.1974029541015625,1.724700927734375,1.279948322613723,0.5354519623434417,1.136402069430916,3.246161460876465,0.7256959676742554,0.6953393816947937,0.8670481871863378,0.06634714446984896,-0.7345933033628395,None
131,6.533,2.8641815185546875,2.3984527587890625,0.1090850830078125,2.268784744091942,2.8882501951222106,-0.5277831547940376,-2.6809241771698,2.0085608959198,3.7461535930633545,0.7926848627429912,0.1660512463736005,-0.5953967744627456,None
132,6.582,-6.453948974609375,2.4824981689453125,0.341796875,-6.637824170461721,2.8441488115969777,-0.5722046157098888,5.576409339904785,2.9224021434783936,9.056639671325684,0.9298559076706303,0.3078610462506887,-0.1838751958523459,None
133,6.632,-3.198577880859375,-1.6780853271484375,-0.1666107177734375,-3.3438315100325116,-1.6187915884047663,-1.1542268556315785,6.336201190948486,1.4101976156234741,0.7831621766090393,0.9982026229002487,0.374125811720459,-0.14525362917313647,None
134,6.682,-0.46734619140625,1.274383544921875,1.6421051025390625,-0.8062244140616339,1.6693283349412578,0.7881846360748409,-7.46482515335083,1.313087821006775,-3.9990999698638916,0.9076243784211971,0.4341624695531339,-0.3388782226553839,None
135,6.732,-0.7026824951171875,0.0193939208984375,-0.2917022705078125,-1.0084002407103028,0.4058675716065645,-1.1618601741884007,0.304695725440979,-1.8731244802474976,0.7006427645683289,0.9139141121346352,0.3480142556115361,-0.30571774559311526,None
136,6.782,-1.93426513671875,-0.6152496337890625,1.85162353515625,-2.345809723148858,-0.14951070162742963,1.0682217860842855,-2.3680012226104736,-1.6614042520523071,-2.26911997795105,0.8595684274964726,0.26902628800641626,-0.41154458643010794,Straight
137,6.832,-0.8585357666015625,0.4544525146484375,1.179779052734375,-1.402538779984114,1.1343938607756232,0.6881079357695343,-8.167150497436523,1.3020575046539307,-3.0210459232330322,0.5859622506256214,0.3311148040257493,-0.5440030133825516,None
138,6.881,-0.2847900390625,0.049285888671875,0.16363525390625,-0.9434182628875436,0.7894077487386428,0.027883660794507742,-8.893308639526367,4.248935222625732,-2.875875949859619,0.1804083370924414,0.5226288645243995,-0.6586282238250436,None
139,6.931,0.4215850830078125,-0.628448486328125,0.2242279052734375,-0.1125551381901716,0.16778370268559872,-0.059864553755277994,-5.2067484855651855,2.703721523284912,-2.96097469329834,0.3360466495659842,0.6327640919258984,-0.5341402211979841,None
140,6.981,0.607635498046875,-0.7816009521484375,-0.2234344482421875,0.008927209982342199,-0.011483061547022055,-0.0032826361250425373,-2.4397783279418945,0.27242007851600647,-2.574836015701294,-0.27485747739924143,0.6432524190049075,-0.5987082880645328,None
141,7.031,0.7802886962890625,-0.7743988037109375,0.0743865966796875,0.10671624590441342,-0.09119531913046441,0.3564028244750376,-2.2607548236846924,0.11752742528915405,-1.942882776260376,-0.3815561322013136,0.6477405550598161,-0.6735724503846491,None
142,7.081,0.7281646728515625,-0.7213592529296875,-0.2568206787109375,0.039048414533704556,-0.03868346843278381,-0.013772214853351561,-3.2241427898406982,0.5118752717971802,-1.0269029140472412,-0.33540080784158016,0.6670251798785295,-0.6891162583178579,None
143,7.131,0.7508392333984375,-0.8568572998046875,-0.5311279296875,0.05571397560241842,-0.20831628950402392,-0.2209740421861297,-2.0810487270355225,0.14990800619125366,-0.16650642454624176,-0.43143523275807055,0.6725907274663719,-0.6951252577960191,None
144,7.18,0.3519287109375,-0.8777923583984375,-0.668487548828125,-0.3606604184071881,-0.24263370345147584,-0.3705106776019409,0.14857429265975952,-1.5397957563400269,-0.49175241589546204,-0.42472162021532534,0.613681040807387,-0.7125891293446881,None
145,7.23,0.591705322265625,-0.7569122314453125,-0.4488372802734375,0.03371276386047195,-0.043125526104974776,-0.025572771905610914,0.3211500644683838,-0.7699459791183472,-0.09796038269996643,-0.5100519043665814,0.5828381559422889,-0.557992558405153,None
146,7.28,0.336700439453125,-0.883270263671875,-0.482635498046875,0.01946349475692072,-0.05105881707147242,-0.027899498738394313,-0.5044258832931519,-0.45837289094924927,0.38380226492881775,-0.4795041592021044,0.5640632993942428,-0.3172369446962043,None
147,7.33,0.4083709716796875,-0.892547607421875,-0.593505859375,0.09588779171844342,-0.06332667221283961,-0.13009793664130148,-0.19041654467582703,-0.8140354156494141,0.10017027705907822,-0.48783720352637416,0.5299966831104561,-0.3124831799612441,None
148,7.38,0.1562957763671875,-0.9622344970703125,-0.8591156005859375,-0.1628884670043616,-0.13677854145224733,-0.3935579950009804,-0.07836378365755081,-0.8327617049217224,-0.14125166833400726,-0.49125377310336205,0.49423843132160883,-0.3191842433715491,None
149,7.43,0.2364349365234375,-0.7765350341796875,-0.859619140625,-0.11125090151422984,0.04953321938162192,-0.41608131981801055,0.41556230187416077,0.07234690338373184,-0.6046648621559143,-0.4730509536937536,0.49737984448483147,-0.34768583803766734,None
150,7.479,0.3806304931640625,-0.5739593505859375,-0.497528076171875,-0.06737379856549874,0.10159412439531901,0.08806534680403488,1.0337491035461426,0.3605280816555023,-0.6446895003318787,-0.6550031902280031,0.5129366858002329,-0.44800429172956124,None
151,7.529,0.5531463623046875,-0.398895263671875,-0.25921630859375,-0.2050285427678047,0.14785402237278822,0.0960807945860655,1.1317875385284424,-0.13733762502670288,-0.04779601842164993,-0.544891388901338,0.5070299262107382,-0.7581749050724922,None
152,7.579,0.271484375,-0.569915771484375,-0.3693389892578125,-0.09970950772401921,0.20931599109105903,0.13564909141523607,1.3582206964492798,-0.9512691497802734,0.9158309698104858,-0.5438427144946021,0.4654756704314148,-0.3711938827240192,None
153,7.629,-0.0112152099609375,-0.861083984375,-0.5097198486328125,-0.00000787449522817417,-0.0006045898159404706,-0.0003578877729211172,2.02742600440979,-0.8789305090904236,1.0568568706512451,-0.5093939529173294,0.4261434338685314,0.011207335465709326,None
154,7.679,-0.263580322265625,-1.2249298095703125,-0.6824798583984375,-0.1834101718070671,-0.3216520620034794,-0.2609800864814875,1.9576069116592407,0.5900608897209167,1.3809741735458374,-0.4228608794211547,0.45264420630172286,0.0801701504585579,None
155,7.729,-0.247467041015625,-1.7450103759765625,-0.171142578125,-0.17896564599054082,-0.8129838326665165,0.18471424904731115,1.4374513626098633,1.1431856155395508,-0.23402394354343414,-0.3566946956689252,0.5028456509667271,0.06850139502508416,None
156,7.779,0.365966796875,-1.4222869873046875,-0.4012603759765625,0.4000764986559019,-0.44978397861633046,-0.1708815003466314,2.6424520015716553,0.15793371200561523,-0.6887752413749695,-0.23051301234693652,0.509655609231356,0.03410970178090188,None
157,7.828,0.39251708984375,-1.2857666015625,0.43072509765625,0.38050230216030634,-0.28599666839213445,0.4129564284476534,5.007514953613281,0.7424400448799133,-0.9226279258728027,0.01776995184668006,0.5412361233665588,-0.012014787683443662,None
158,7.878,0.6694793701171875,-1.0453338623046875,0.9804229736328125,0.5536675372130083,-0.05997187914277846,0.8553254856540202,2.1701884269714355,0.8239932060241699,-2.081144332885742,0.12594494999680797,0.5754106234340073,-0.11581183290417921,None
159,7.928,1.2546539306640625,-0.221160888671875,-0.2991790771484375,1.084428039511972,0.7110425318324117,-0.618584663795861,4.076366424560547,-0.1346646100282669,-1.0997321605682373,0.3241363347504113,0.5698907502467684,-0.1702258911520904,None
160,7.978,2.11590576171875,0.3507232666015625,0.33319091796875,1.9868570405009187,1.1202590109328354,-0.2922378675444818,7.047191619873047,0.21954300999641418,0.8329856395721436,0.6307025598801234,0.5788763834220818,-0.12904872121783126,None
161,8.028,2.3815765380859375,0.797271728515625,0.742156982421875,2.397365323003602,1.3640228693511236,-0.08158075413781707,5.713903903961182,1.5229321718215942,2.9039812088012695,0.8238404287910259,0.6392300671767487,0.01578878491766423,None
162,8.078,0.1767730712890625,2.3759613037109375,-0.01348876953125,0.5102816188868934,2.7389965643425445,-0.8835332788624257,4.146917343139648,2.0957517623901367,6.484666347503662,0.9228822149518375,0.7161596567738912,0.3335085475978309,None
163,8.127,-6.2830657958984375,0.485992431640625,1.671356201171875,-5.635485547615627,0.7801200097703753,0.9684132519807616,-0.01979500986635685,5.710187911987305,7.287636756896973,0.9225006275363837,0.8837395060382329,0.6475802482828111,None
164,8.177,-1.5930938720703125,-1.231781005859375,1.910980224609375,-0.9727107843984361,-1.0302797636528735,1.1530078808395343,2.72908091545105,-2.0671002864837646,-0.7034708261489868,0.9664329591811899,0.8307416146717137,0.6203830876718764,None
165,8.227,0.602020263671875,1.6759185791015625,0.4464263916015625,1.1165341159645013,2.115511542280001,-0.28980286788423193,-5.56884241104126,-0.0396488755941391,-2.5758090019226074,0.8585943514539048,0.8296364393350849,0.5145138522926264,None
166,8.277,-1.3988494873046875,-0.4512939453125,0.8434600830078125,-0.906320143518272,-0.023318952375694757,0.08566575013769628,0.48334428668022156,-2.648329496383667,-0.5089386105537415,0.8707318820195813,0.7486607935149058,0.49252934378641555,None
167,8.327,-1.216583251953125,-0.0255279541015625,1.19366455078125,-0.8066540868921055,0.5227370605138442,0.46471767111089746,-2.6151435375213623,-1.3892185688018799,-1.8523454666137695,0.7991810167238971,0.7008431151079222,0.40992916506101945,None
168,8.377,-0.23712158203125,-0.225067138671875,0.75164794921875,0.08647208535966511,0.45633808146256194,0.09516179978523953,-3.183135986328125,-0.9144176840782166,-1.8570270538330078,0.6938161344714676,0.6675086700760128,0.3235936673909151,None
169,8.426,0.209228515625,-0.441253662109375,0.5941619873046875,-0.06281594648999517,0.1324760458428884,-0.17838317826530914,-3.7321157455444336,0.14128468930721283,-1.9733589887619019,0.8028239245913197,0.6727520142041689,-0.27204446211499517,None
170,8.476,0.9221038818359375,-0.3368072509765625,0.739715576171875,0.5666873806853299,0.3795842842442999,0.13933046728445764,-4.689807891845703,1.3975611925125122,-1.7568527460098267,0.642323684402496,0.7227686561657956,-0.35541650115060763,None
171,8.526,0.8809814453125,-0.4815521240234375,0.2415618896484375,0.4873415398827856,0.3059297009286186,-0.2326954247110407,-3.1091468334198,-0.08893466740846634,-0.8245642185211182,0.5159094047720921,0.7196884272673043,-0.3936399054297144,None
172,8.576,0.7798919677734375,-0.465576171875,0.303985595703125,0.39019934835268877,0.3558271724202866,-0.11247113476177484,-1.4566383361816406,-0.4477836489677429,0.0858006551861763,0.4522058733054777,0.703964606253311,-0.38969261942074873,None
173,8.626,0.588409423828125,-0.5466766357421875,0.3868255615234375,-0.07163613320112694,0.06655535875205554,-0.04709422780928857,-1.0867679119110107,-0.8334977626800537,0.9760029911994934,0.5776158380372208,0.6737629738565699,-0.6600455570292519,None
174,8.676,0.4036102294921875,-0.622802734375,0.14422607421875,-0.13024255998536316,0.20097464475303717,-0.04654087471103749,-1.73098886013031,-0.1530313640832901,1.477085828781128,0.22560553410656237,0.668089198452923,-0.5338527894775507,None
175,8.725,0.32440185546875,-0.8799896240234375,0.0068817138671875,-0.021477395864328674,0.058260719515131565,-0.0004556117372915445,-0.4174606204032898,-0.6297414302825928,2.4434688091278076,0.007819982486600865,0.6443329755109707,-0.3458792513330787,None
176,8.775,-0.33941650390625,-1.617034912109375,-0.04351806640625,-0.5718668908944498,-0.6458617756350895,-0.09633431939465421,0.9302077889442444,0.3031950294971466,2.3715877532958984,0.05430372682919341,0.6558518383443567,-0.23245038698819973,None
177,8.825,-0.3520050048828125,-1.8363037109375,0.470367431640625,-0.5516405253232981,-0.8642564183636471,0.34679672322516364,1.4423097372055054,0.20146973431110382,0.6722077131271362,0.12610925935860692,0.663422804434498,-0.19963552044048555,None
178,8.875,-0.0994873046875,-1.420318603515625,0.5825042724609375,-0.32914434365676365,-0.4490667681500875,0.519834369389806,-1.2402077913284302,1.093184232711792,-0.6147869825363159,0.06439096943172122,0.7033101258268908,-0.22965703896926365,None
179,8.925,0.216766357421875,-0.856231689453125,-0.1009979248046875,-0.02706532488964153,0.1069086048752178,0.01261054381560868,-0.4360627830028534,0.4209480285644531,-1.032151222229004,-0.11714416467664103,0.7181154893713201,-0.24383168231151653,None
180,8.975,0.35406494140625,-0.60504150390625,0.310760498046875,-0.10766797062490796,0.1839876905369271,-0.09449947809631393,1.684962511062622,-0.2259140908718109,-0.2580176889896393,0.4568785709881287,0.7102088924687634,-0.46173291203115796,None
181,9.024,0.0777130126953125,-0.8167572021484375,0.4215545654296875,-0.006536970680723189,0.06870300994052025,-0.035459825053277216,0.9228532314300537,-0.33234572410583496,0.47722673416137695,0.45864503415404567,0.6984129566797234,-0.08424998337603569,None
182,9.074,-0.3763275146484375,-1.212188720703125,0.3196868896484375,-0.4590221861926036,-0.3583366355385428,-0.19421797310175815,1.3064181804656982,-0.39475664496421814,0.031215177848935127,0.5156710722194084,0.6841515657621305,-0.0826946715441661,None
183,9.124,-0.2524871826171875,-1.1390838623046875,0.6232452392578125,-0.37193546571684943,-0.28352538406829597,0.11950741262338849,-0.1932046115398407,0.23139381408691406,-0.7388991117477417,0.5073703834199069,0.6925438251557893,-0.11944828309966193,None
184,9.174,-0.067901611328125,-0.8942413330078125,0.2675933837890625,0.00465160709941434,0.06126009754183759,-0.01833151319155707,-1.1131714582443237,0.7066559195518494,-1.0444563627243042,0.2866804310930292,0.7175945031807677,0.07255321842753934,None
185,9.224,0.1247406005859375,-0.746826171875,0.21087646484375,-0.03396471014649574,0.20334786219083645,-0.05741801764214943,0.21449871361255646,0.22278647124767303,-0.5295224189758301,0.2717384970131851,0.7253079280733699,-0.15870531073243324,None
186,9.274,0.012969970703125,-0.8036651611328125,0.4016571044921875,-0.001464521942281912,0.09074694844475983,-0.04535366010198455,0.32507050037384033,0.32161399722099304,-0.06616730242967606,0.4470573402420792,0.7362840238273979,-0.014434492645406912,None
187,9.324,-0.0294952392578125,-1.0689239501953125,0.385986328125,-0.046959170525485906,-0.17829030113134725,-0.06839975689486916,0.1657562106847763,0.355398565530777,-0.06059650331735611,0.4544553922287789,0.7481915696830322,-0.017463931267673406,None
188,9.373,-0.2506256103515625,-1.389251708984375,0.4193115234375,-0.2981010097124377,-0.49422495097852315,-0.024166986649584055,-0.23452195525169373,1.2095204591751099,-0.6005686521530151,0.44397913763490904,0.7869241324536943,-0.04747539936087522,None
189,9.423,0.0331878662109375,-1.3524627685546875,0.550201416015625,-0.06765423424000318,-0.49194857282011084,0.05085565432747685,1.3152875900268555,0.7500258088111877,-1.070410966873169,0.5019042472755543,0.8095055920916925,-0.10084210045094068,None
190,9.473,0.5002593994140625,-0.94488525390625,0.573822021484375,0.32293141253977303,-0.1205398014786303,0.036226113638142654,1.0417063236236572,1.9544752836227417,-1.5451388359069824,0.5462530296637282,0.8629268383377979,-0.17732798687428947,None
191,9.523,0.9349517822265625,-0.5452117919921875,0.545989990234375,0.7271483136770494,0.1677134130841268,-0.12375277413541397,3.5258548259735107,0.33488237857818604,-0.6211625933647156,0.684689118499035,0.8712667651061068,-0.2078034685495132,None
192,9.573,1.1902313232421875,-0.2978668212890625,0.6648712158203125,1.0373445214842494,0.26502466234264743,-0.1473964762019182,4.212301731109619,0.011434282176196575,1.1168022155761719,0.8219305477757192,0.8715472255675722,-0.1528868017579381,None
193,9.623,1.305938720703125,-0.122528076171875,0.8564453125,1.251023721788666,0.23236980280074482,-0.07684555234062429,4.852511882781982,0.5499259829521179,1.9709224700927734,0.9347012982954155,0.884697836029411,-0.05491499891445903,None
194,9.672,1.915313720703125,0.36517333984375,1.6036529541015625,1.9442972362836122,0.5943472025789968,0.630699051563728,2.64101505279541,-0.01878167688846588,1.678604245185852,0.9733628223182691,0.8842596780442563,0.0289835155804871,None
195,9.722,-1.287384033203125,2.161468505859375,-1.746368408203125,-0.9663754011061658,2.3168378205210645,-2.6806134692983368,1.330627679824829,-0.04364335164427757,5.95613431930542,0.9864517698222249,0.8832385109965206,0.3210086320969592,None
196,9.772,-4.752899169921875,-0.4223175048828125,0.407562255859375,-4.162664348476367,-0.15520791217585184,-0.3541957903975127,-3.4491262435913086,4.613002777099609,6.091108322143555,0.9436672778179039,0.9670495149571191,0.5902348214455082,None
197,9.822,-2.3256072998046875,-1.1403656005859375,1.955596923828125,-1.7168414606269224,-0.9888297484272496,1.1768536808007894,2.901284694671631,-2.2857086658477783,0.46308642625808716,0.9815885624143655,0.9317085458772438,0.6087658391777651,None
198,9.872,-0.495513916015625,1.3464508056640625,0.4524383544921875,-0.002785112960883518,1.7190151765737627,-0.33395475087490634,-5.005009651184082,-0.5407045483589172,-2.785623073577881,0.9037101060755506,0.9215498895531576,0.4927288030547415,Straight
199,9.922,-1.838897705078125,0.0428314208984375,0.7595977783203125,-1.4470674920423514,0.4954582067429516,-0.041400397013692136,-1.4381396770477295,-2.4158289432525635,-2.252056837081909,0.8706146610148494,0.8680505687615718,0.3918302130357735,None
200,9.971,-0.7737579345703125,0.0812835693359375,0.6652984619140625,-0.5114757799239585,0.690822311713328,-0.08281288868493442,-3.3867287635803223,-0.8398779034614563,-2.7446727752685547,0.7752519695464638,0.846442458176448,0.26228215464635396,None
201,10.021,0.175201416015625,-0.4110107421875,0.48583984375,-0.09023525210067229,0.2116858344002529,-0.2502256076367714,-2.137742042541504,-0.028985578566789627,-2.8345189094543457,0.763451765525992,0.8456698571731015,-0.2654366681162973,None
202,10.071,0.9865570068359375,-0.646575927734375,0.923736572265625,0.6080617237552715,0.03893979836850081,0.3017964546085202,-2.6365954875946045,0.9603111147880554,-2.390265703201294,0.6719295096289642,0.8703115636283488,-0.378495283080666,None
203,10.121,0.77947998046875,-0.6679534912109375,0.7040863037109375,0.31199030281674905,0.05440921885161498,0.19453207067983713,-2.449409008026123,0.7832468748092651,-1.965576171875,0.5764197740811622,0.8889268406267481,-0.46748967765200095,None
204,10.171,0.9312591552734375,-0.6438751220703125,0.979461669921875,0.38734161378148435,0.08043342834645562,0.5557508819420202,-1.7006694078445435,-0.2995246648788452,-1.7729941606521606,0.5049353616476395,0.8819675596044495,-0.5439175414919531,None
205,10.221,0.631011962890625,-0.5693206787109375,0.4882659912109375,-0.012775305906364331,0.011526320033669046,-0.009885307677558852,-1.216331958770752,-0.5758923292160034,-1.4441760778427124,0.6510041275894407,0.8680326333417542,-0.6437872687969893,None
206,10.27,0.7936553955078125,-0.4262847900390625,0.7681732177734375,0.11822410073273526,0.14957985310345434,0.30755137849874087,-0.6847913861274719,-0.2718046009540558,-0.8422406911849976,0.6246372678014609,0.8612050355656312,-0.6754312947750772,None
207,10.32,0.52349853515625,-0.50299072265625,0.5220947265625,-0.06192481209806244,0.059498936283098214,-0.06175875512263351,-2.0405070781707764,0.2886613607406616,0.31319066882133484,0.72015972422335,0.8684508000633373,-0.5854233472543124,None
208,10.37,0.4160919189453125,-0.650115966796875,0.2869720458984375,-0.08918657493580306,0.13934809533590609,-0.061510576655456506,-1.202203392982483,0.1776174008846283,0.5125138759613037,0.4038241642875119,0.8728194116649229,-0.5052784938811156,None
209,10.42,0.42730712890625,-0.7019195556640625,0.3920745849609375,-0.04200478896791843,0.06899951068823074,-0.038541388820549694,-0.9491945505142212,-0.3482394814491272,1.0189059972763062,0.4876558832766745,0.8641897375753987,-0.4693119178741684,None
210,10.47,0.2060394287109375,-0.8088226318359375,0.266815185546875,-0.029094836169157784,0.11421387697686025,-0.03767698328178137,-1.331392765045166,-0.5205233693122864,1.031030297279358,0.3132755057522517,0.8508030630437108,-0.23513426488009528,None
211,10.52,0.2457122802734375,-0.832855224609375,0.13409423828125,-0.03393924695827549,0.11503893544535748,-0.01852189668194318,-1.2644577026367188,-0.25752848386764526,0.7889231443405151,0.15895832258564704,0.8439663548095551,-0.279651527231713,None
212,10.569,0.335479736328125,-0.8515625,0.053253173828125,-0.030440795470476234,0.07726916736179112,-0.0048320920673140325,-1.4930565357208252,-0.38554689288139343,0.6894503235816956,0.06241391422920758,0.8334698916125123,-0.36592053179860123,None
213,10.619,0.3383941650390625,-0.89373779296875,-0.32525634765625,0.0031810866254551318,-0.008401614547781766,-0.003057584096505417,-1.413203477859497,0.48278823494911194,0.6035053133964539,-0.3419852280195186,0.8465643629036538,-0.33521307841360737,None
214,10.669,0.1149749755859375,-1.190216064453125,-0.2042236328125,-0.17035452072315338,-0.29053303914027806,0.12616633752546835,-0.05823933705687523,0.790208637714386,1.049623727798462,-0.3447201649798454,0.8669290669487272,-0.2853294963090909,None
215,10.719,0.136077880859375,-1.1650238037109375,0.0544891357421875,-0.12333895377802395,-0.2709573633865716,0.41965773542243057,-0.7163320183753967,1.5113869905471802,0.538637638092041,-0.37811313232211197,0.9020851540891537,-0.25941683463739895,None
216,10.769,0.221832275390625,-0.9642181396484375,-0.093719482421875,-0.0013759085052548192,0.005980536136714565,0.0005812924775947109,-0.9170550107955933,1.3679462671279907,0.7505722641944885,-0.09674148547718488,0.9294703163704245,-0.22320818389587982,None
217,10.819,0.2382354736328125,-0.71466064453125,-0.0688934326171875,-0.07669628388191424,0.23007411464121807,0.02217919180982783,0.8641475439071655,0.47737962007522583,1.1307952404022217,-0.09595537937454174,0.9380099134821493,-0.31493175751472674,None
218,10.869,-0.1732330322265625,-1.031829833984375,0.0702667236328125,-0.008033272463436186,-0.04784867000109927,0.003258453245320425,0.953995406627655,-0.050755590200424194,1.5090839862823486,0.06794178179723728,0.9371272781176403,0.1651997597631263,None
219,10.918,-0.0873260498046875,-1.1662139892578125,0.186431884765625,0.11235692337448469,-0.18669947444921686,0.1603929619459763,-0.8283384442329407,0.6125677824020386,0.7014763355255127,0.026574110618499666,0.9473750158915655,0.1996829731791722,None
220,10.968,-0.0039520263671875,-1.270751953125,-0.279296875,0.23775942449955248,-0.30132974325701367,-0.23691582340184586,-1.4053453207015991,0.4209080934524536,0.8618969321250916,-0.04367612866157152,0.9539019045298798,0.24171145086673998,None
221,11.018,-0.0692291259765625,-1.410247802734375,-0.55364990234375,0.20805351221973484,-0.45054850663325774,-0.5079158929205511,-0.07856937497854233,0.33143919706344604,0.736709475517273,-0.047600501521639235,0.9587442478192624,0.27728263819629734,None
222,11.068,-0.3649444580078125,-1.4575958251953125,-0.3819732666015625,-0.10254739172398009,-0.49284345435382393,-0.36195720901359024,0.5374823808670044,0.9279363751411438,-0.3091842234134674,-0.02074288864239852,0.9708970004145616,0.2623970662838324,None
223,11.118,-0.15802001953125,-0.996978759765625,0.04254150390625,-0.0016141282382733102,-0.010183846159936505,0.0004345490081405501,0.9708223342895508,1.6405788660049438,-0.7578464150428772,0.0426316280655173,0.9872560671182161,0.1564058912929767,None
224,11.168,-0.0628204345703125,-0.8376007080078125,0.4285125732421875,0.0038011246629995332,0.050681354414873536,-0.025928341974985336,0.848035454750061,1.2646862268447876,-0.7096757292747498,0.45545278739555295,0.9953393015538171,0.06662155923331203,None
225,11.217,-0.0523529052734375,-0.7829437255859375,0.2751007080078125,0.010607738184496701,0.15863994578394358,-0.05574086614056861,0.7841757535934448,0.6951998472213745,-0.06785228103399277,0.33149926518301875,0.9980894478917811,0.0629606434579342,None
226,11.267,-0.245208740234375,-0.8478851318359375,0.2063140869140625,0.025314883014706024,0.08753404508264928,-0.021299473132659535,1.1886029243469238,-0.2836966812610626,0.09968238323926926,0.23642921656487484,0.9971126486642876,0.270523623249081,None
227,11.317,-0.24041748046875,-0.872314453125,0.0594024658203125,0.024713821529584956,0.08966995107916442,-0.006106302818905701,1.0207995176315308,-0.5120134949684143,0.06972608715295792,0.0679401906286783,0.9948420997858766,0.26513130199833496,None
228,11.367,-0.134124755859375,-0.82354736328125,0.0184173583984375,0.026580477176048167,0.16320836338403544,-0.0036499017009656264,1.2150739431381226,-0.44706350564956665,0.13622388243675232,0.022357857564212002,0.9923263458814383,0.16070523303542317,None
229,11.417,-0.0369873046875,-0.773956298828125,0.1036834716796875,0.010326411932312547,0.2160793176694542,-0.028947181963723173,1.6279296875,-0.4393038749694824,0.3100649118423462,0.13277935603282603,0.9893712738404561,0.04731371661981255,None
230,11.467,-0.11090087890625,-0.826904296875,0.2099456787109375,0.01800597913050697,0.13425701995603068,-0.03408699323839434,1.1216036081314087,-0.005612345412373543,0.4783460795879364,0.24608583852427982,0.9893304299292709,0.12890685803675697,None
231,11.516,-0.129852294921875,-0.984466552734375,0.0814971923828125,0.00047802872939908814,0.003624143074426711,-0.00030001779597213507,0.06800434738397598,0.5547023415565491,0.25253796577453613,0.08250089094509387,0.9929901246166456,0.1303303236512741,None
232,11.566,-0.3558807373046875,-1.14556884765625,0.0162506103515625,-0.22283650055812262,-0.1611292211851516,-0.09854421924440974,0.6698055267333984,1.4757739305496216,0.05475512519478798,0.11582449775494384,0.9990017643286185,0.13304423674656488,None
233,11.616,-0.4659271240234375,-1.028350830078125,0.6371307373046875,-0.35566070169264896,-0.05044140963688004,0.45955122970700113,1.2709698677062988,1.3988735675811768,-0.45897582173347473,0.1786690195490026,0.9996810319062198,0.11026642233078855,None
234,11.666,-0.4197235107421875,-0.874114990234375,1.0535736083984375,-0.3408141054842085,0.10485626024603245,0.8654550380906142,0.20423568785190582,0.9308634996414185,-0.6299915313720703,0.18870699811712882,0.9974233978446773,0.07890940525797903,None
235,11.716,-0.3752899169921875,-0.7237091064453125,0.8158416748046875,-0.33554890026660733,0.25945644521432276,0.6374988879603016,-0.20800086855888367,0.3670690953731537,-0.7848008275032043,0.17848378658061959,0.9959388168984213,0.039741016725580156,None
236,11.766,-0.3078765869140625,-0.690185546875,0.617767333984375,0.007536870848480648,0.016895858760890392,-0.015123048677780804,0.16290822625160217,-0.1316661536693573,-0.6472293734550476,0.6669344899210171,0.9965099431818191,0.31541345776254315,None
237,11.815,-0.2749481201171875,-0.7840423583984375,0.5172119140625,0.005987757354862122,0.01707469538625217,-0.011263722920273445,0.37929537892341614,-0.3306429088115692,-0.4209219217300415,0.5506523104461765,0.9977537111737578,0.2809358774720496,None
238,11.865,-0.21630859375,-0.876708984375,0.4596710205078125,-0.0028317220236058205,-0.011477103596804095,0.006017609054819795,0.48269662261009216,-0.39495691657066345,-0.3019680976867676,0.464357731081817,0.9988819700955986,0.21347687172639418,None
239,11.915,-0.149078369140625,-0.93572998046875,0.4502105712890625,-0.006970306494508083,-0.04375098008896772,0.021050040237508727,0.5526442527770996,-0.3295573890209198,-0.19278623163700104,0.4335606734290387,0.9995253007019262,0.14210806264611692,None
240,11.965,-0.0294647216796875,-0.9124908447265625,0.4481353759765625,-0.0004931439165681041,-0.015272138454007878,0.0075003333431846175,0.3995274305343628,-0.20561841130256653,-0.24543187022209167,0.44082008314940035,0.9997892133512504,0.028971577763119396,None
241,12.015,0.0862579345703125,-0.7802276611328125,0.2453155517578125,-0.018625081482279413,0.16846918298839408,-0.052969296831878177,0.9926764965057373,-0.4153346121311188,-0.05892030894756317,0.29993914299643215,0.9999999725939719,-0.10488301605259191,None
242,12.065,0.0826568603515625,-0.6396026611328125,0.37945556640625,-0.02780686788622412,0.21517084755157023,-0.1276539026388449,2.707469940185547,-0.7592225074768066,0.155692920088768,0.5102320092807,0.9992706503007861,-0.11046372823778662,None
243,12.114,0.0249786376953125,-0.70025634765625,0.8743133544921875,-0.0805361865146288,0.09228008985326175,0.27368650103683534,2.2610833644866943,-1.0344133377075195,0.09956040978431702,0.6039985363241471,0.9959602871976951,-0.1055148242099413,None
244,12.164,-0.031890869140625,-0.6784210205078125,0.88726806640625,-0.15991395733559158,0.12600761433290175,0.3071778489940542,-0.47495800256729126,-0.11483124643564224,-0.453276127576828,0.5849032766489509,0.9954283114447824,-0.12802308819496658,None
245,12.214,0.056793212890625,-0.64215087890625,0.6378021240234375,-0.005833778592098826,0.06596150947605806,-0.06551480692400269,-1.20722234249115,0.35855042934417725,-0.36175447702407837,0.7047002552293775,0.9969805479538447,-0.06262699148272383,None
246,12.264,0.0689697265625,-0.702789306640625,0.735198974609375,0.0013129009746528086,-0.013378228559858374,0.013995175832017703,-1.7275159358978271,0.4567534327507019,-0.3243415951728821,0.7228601229919288,0.9984937969908583,-0.06765682558784719,None
247,12.314,0.1456451416015625,-0.7269287109375,0.6786651611328125,0.000738895632183878,-0.003687898157909264,0.0034430446341161547,-3.206272602081299,0.8593296408653259,-0.3117389678955078,0.6824248445573735,0.9999288884997709,-0.14490624596937862,None
248,12.364,0.105499267578125,-0.7680816650390625,0.2493438720703125,-0.024042611120911495,0.17504091929321985,-0.05682388029025376,-3.9531400203704834,0.6620455980300903,-0.25359952449798584,0.30876945873763173,0.9997757867112476,-0.1295418786990365,None
249,12.414,0.0975189208984375,-0.905120849609375,0.2770538330078125,-0.004961678648604487,0.04605176874947914,-0.014096260244517489,-4.518101692199707,1.2880834341049194,-0.049675144255161285,0.2926911109967003,0.9963402104896084,-0.10248059954704199,None
250,12.463,0.284454345703125,-0.8893280029296875,-0.152191162109375,-0.01622647905342406,0.05073103093395104,0.008681627619292392,-4.927581787109375,1.457823634147644,-0.34685781598091125,-0.16867841281801363,0.9874695951949539,-0.30068082475654906,None
251,12.513,0.277740478515625,-0.906768798828125,-0.30609130859375,-0.0009686201861962562,0.0031623570588341643,0.0010674937333862156,-4.516785144805908,1.3098795413970947,0.09825865924358368,-0.3198319610034493,0.9750243198343187,-0.27870909870182126,None
252,12.563,0.237335205078125,-0.864898681640625,-0.70855712890625,-0.039620440087723086,-0.00022040533162759335,-0.2894783187880695,-2.5150387287139893,0.48177221417427063,0.036506347358226776,-0.4361394043488219,0.9693919313300883,-0.2769556451658481,None
253,12.613,0.149444580078125,-0.8878326416015625,-0.5909271240234375,0.010675332831662249,-0.06342089450788924,-0.04221192715660438,-1.0138188600540161,0.060211408883333206,0.27017396688461304,-0.5540760249680116,0.9686483889606259,-0.13876924724646275,None
254,12.663,0.0202178955078125,-0.9244537353515625,-0.65606689453125,-0.11190857622655995,-0.11815803882229203,-0.07949959991126843,-0.6704745292663574,0.2473221719264984,0.13409149646759033,-0.5816668455552492,0.9655022221537307,-0.13212647173437245,None
255,12.713,0.1647186279296875,-0.87646484375,-0.696075439453125,0.033850370649413986,-0.0660216809114339,-0.12506284848454963,0.1398194134235382,-0.2305477261543274,0.02538471855223179,-0.5759660326928853,0.9684396797233039,-0.13086825728027351,None
256,12.762,0.0679779052734375,-0.8935699462890625,-0.6923370361328125,-0.06442904126288584,-0.05829376236534012,-0.15868724733987094,0.90519779920578,-0.8475728631019592,-0.03104393556714058,-0.5383900764615072,0.9781298079692806,-0.13240694653632334,None
257,12.812,0.0865936279296875,-0.821533203125,-0.51617431640625,-0.0023033266150682546,0.021852177084629942,0.013729855988463102,1.0067877769470215,-0.6699243187904358,-0.09492971003055573,-0.5320104933288388,0.9845468856248842,-0.08889695454475575,None
258,12.862,0.1307525634765625,-0.7664031982421875,-0.4016876220703125,-0.01865961499296842,0.10937291192109044,0.05732458451276623,0.7133966684341431,-0.25130918622016907,0.09670151025056839,-0.46422311093287894,0.986669581455429,-0.14941217846953092,None
259,12.912,0.105804443359375,-0.8131561279296875,-0.2823944091796875,-0.016192124977190317,0.12444397637142335,0.043217141181548735,0.4759178161621094,-0.10097242146730423,0.41510823369026184,-0.32806200223444193,0.9874785980274576,-0.12199656833656532,None
260,12.962,0.01043701171875,-0.9145965576171875,-0.3038330078125,-0.0003920114764188864,0.034352011527882476,0.011411889646860573,0.041313350200653076,-0.08990804851055145,0.5413109064102173,-0.3152633831140704,0.9881777812076891,-0.010829023195168886,None
261,13.012,-0.1261749267578125,-0.9902801513671875,-0.4724884033203125,-0.11571633435801743,-0.04462270605079943,-0.1474920741676628,-0.2058493047952652,-0.027873443439602852,0.4257603585720062,-0.32501410501035666,0.9883904885968233,0.010458592399795068,None
262,13.061,-0.096038818359375,-0.969482421875,-0.5116424560546875,-0.07223766289707934,-0.022328315217934547,-0.19174778082342347,0.10625293850898743,0.10236445814371109,0.2668924033641815,-0.31998532311399897,0.9875999088191904,0.02380115546229566,None
263,13.111,-0.1194305419921875,-0.9497222900390625,-0.4339141845703125,-0.005791102622774824,-0.04605136301828627,-0.021040192319387863,0.2619147002696991,0.265135794878006,0.10785296559333801,-0.41556600512935254,0.9854319823572284,0.11363943936941268,None
264,13.161,-0.02850341796875,-0.8600311279296875,-0.47515869140625,0.0004936467482436167,0.014894759995318418,0.008229207569757035,0.9529306888580322,0.3259456157684326,0.029355492442846298,-0.4835912506891994,0.9825295632085187,0.028997064716993617,None
265,13.211,-0.124603271484375,-0.8870086669921875,-0.6293792724609375,-0.01078201929841685,-0.07675355912763526,-0.05446068454589781,3.681313991546631,-1.620896816253662,-0.008956477046012878,-0.578679283168549,0.9943710428344279,0.11382125218595815,None
266,13.261,-0.2275238037109375,-1.24090576171875,-0.0713348388671875,-0.13712723432041368,-0.29195321584848877,0.23085305951521629,6.176356792449951,-2.082050323486328,-0.4709664583206177,-0.3034301873615205,0.9999978974446418,0.09039656939052383,None
267,13.311,-0.5695953369140625,-1.90679931640625,0.4763336181640625,-0.5399200857743363,-0.9115807505365601,0.5693894380684179,4.301173686981201,-0.7887486815452576,-1.2168105840682983,-0.09309682041849583,0.9993011951061346,0.029675251139726272,None
268,13.36,0.1890106201171875,-1.118743896484375,0.54791259765625,0.09180518680855991,-0.12859060607056294,0.4471774736032017,3.89239764213562,0.0857228934764862,-2.5407755374908447,0.10121444137382621,0.9994522234230813,-0.09720543330862759,None
269,13.41,1.4513397216796875,0.1591644287109375,0.6772003173828125,1.2757285566672183,1.0830367292197574,0.33716989069204706,5.025496959686279,-0.4353291094303131,-1.5833475589752197,0.34539804793780093,0.9984951778043416,-0.17561116501246918,None
270,13.46,3.1529541015625,0.9697265625,0.412109375,3.0695786605493445,1.7882316406445482,-0.1563077015269536,5.086672782897949,1.1406172513961792,1.8610841035842896,0.5704031023554574,0.9999976590836792,-0.0833754410131555,None
271,13.51,3.0071868896484375,0.9588470458984375,1.1315460205078125,3.124393643096256,1.644404601733339,0.41302433358117674,4.03749418258667,1.0861324071884155,4.018982410430908,0.7235084432310085,0.9984059720370876,0.11720675344781818,None
272,13.56,-2.7085418701171875,3.227203369140625,-1.045440673828125,-2.2567651821700654,3.725031378104165,-1.7857548623446808,3.3985166549682617,2.14292311668396,7.025581359863281,0.8298267189260905,0.9866446493012458,0.451776687947122,None
273,13.61,-7.389862060546875,-1.56097412109375,-2.112213134765625,-6.703965027747777,-1.1800216825083685,-2.7322296667494452,0.8208402991294861,3.4803786277770996,5.741596698760986,0.8520238012365596,0.9435405721084982,0.6858970327990985,None
274,13.659,-2.90704345703125,-1.1969451904296875,3.0388336181640625,-2.2908597794657988,-0.7151199785509712,2.4158070210592952,-2.146575927734375,-4.246849060058594,-1.838954210281372,0.7910419385490427,0.9921610937818408,0.6161836775654513,None
275,13.709,-0.3684844970703125,1.569305419921875,-0.571441650390625,0.14132627583379342,2.1937385049811335,-1.1631986090436643,-3.079465866088867,-1.2494508028030396,-2.578463077545166,0.6878602804739622,0.9980274431656687,0.5098107729041059,None
276,13.759,-1.5380096435546875,0.3770751953125,1.4540863037109375,-1.1034295702745347,1.1505703128785967,0.9927345257700398,-4.414626121520996,-0.64346843957901,-1.7078570127487183,0.5122526887028723,0.9995304160058265,0.4345800732801528,Straight
277,13.809,-0.579833984375,0.2174530029296875,0.2771453857421875,-0.24955376913028376,1.1357167024119916,0.0587266190782931,-6.085691452026367,0.33872053027153015,-2.2594306468963623,0.23140451053077954,0.9988681391317764,0.33028021524471624,None
278,13.859,0.284912109375,-0.766754150390625,0.477691650390625,-0.015867122553044566,0.0427015267936206,-0.026603263637833052,-4.15811014175415,0.7839475274085999,-2.123295545578003,0.5287807438239048,0.9962369392193088,-0.30077923192804457,None
279,13.909,0.5677490234375,-0.80670166015625,0.652252197265625,0.15422591650292622,0.0636100872606451,0.38475247326702405,-5.179346561431885,1.9136945009231567,-2.416210174560547,0.29379637246953183,0.9833993645365068,-0.4135231069345738,None
280,13.958,1.1100921630859375,-0.9396820068359375,0.743408203125,0.6313778295392746,-0.062322657787977964,0.7106490899636952,-5.217502117156982,2.5134005546569824,-1.4573928117752075,0.037312307095632324,0.9529007861807522,-0.47871433354666293,None
281,14.008,0.666290283203125,-1.0870819091796875,-0.0533905029296875,0.16033959970454936,-0.2411462750363138,0.11515269258342792,-4.679689884185791,0.7383065223693848,-0.6258801221847534,-0.19539826238300648,0.9410583626796999,-0.5059506834985756,None
282,14.058,0.666015625,-0.972747802734375,0.0008697509765625,0.15089310824889357,-0.17492734419924527,0.3141289227158773,-3.549703359603882,1.4633830785751343,-0.21333624422550201,-0.3654802477965039,0.9138134358112394,-0.5151225167511064,None
283,14.108,0.4672088623046875,-0.7787322998046875,-0.142669677734375,-0.04102850438573058,0.06838530720551816,0.01252870818794144,-1.7909854650497437,-0.3535817563533783,-0.6466906070709229,-0.18020821680599333,0.9208503417909334,-0.5082373666904181,None
284,14.158,0.5522613525390625,-0.709564208984375,-0.1918792724609375,-0.048416154361526464,0.0622067253369355,0.0168218479014228,-0.8872683048248291,-0.8339590430259705,-0.03237498551607132,-0.26104235118329916,0.9363039038606085,-0.600677506900589,None
285,14.208,0.1766204833984375,-0.9007110595703125,-0.3186798095703125,-0.005160188547443267,0.026315401275769257,0.009310629616704147,-1.1064462661743164,-0.7828071713447571,0.2904994785785675,-0.3335476428178527,0.9493290274016198,-0.18178067194588077,None
286,14.258,0.1827392578125,-0.87646484375,-0.8228912353515625,-0.022436017517228235,0.02881762197035942,-0.4509144032065531,-0.9959942698478699,-0.8146335482597351,-0.47691595554351807,-0.38006256997423454,0.9613394076569365,-0.20517527532972824,None
287,14.307,0.2390289306640625,-0.8452911376953125,-0.8564605712890625,0.020291517841772633,0.048765155336530586,-0.46554205148989714,-0.44659027457237244,-0.09352808445692062,-0.27755144238471985,-0.4006200310400391,0.9626166149874985,-0.21873741282228987,None
288,14.357,0.303070068359375,-0.8189697265625,-0.7393798828125,0.06423602149271532,0.07759486454835207,-0.3663782313100904,0.3588249981403351,-0.11286582797765732,-0.41289222240448,-0.3841178694706132,0.9641298635690837,-0.23883404686665968,None
289,14.407,0.3857574462890625,-0.7919158935546875,-0.5922393798828125,0.022334234411293397,-0.04584962745586452,-0.03428893794571153,0.5074568390846252,-0.25426769256591797,-0.31286123394966125,-0.5989007884928663,0.9674263836541598,-0.3634232118777691,None
290,14.457,0.374969482421875,-0.75079345703125,-0.51361083984375,-0.006129926778992545,0.012273822626904463,0.008396408211153394,0.24671177566051483,-0.07443002611398697,-0.09403195977210999,-0.5646165640750694,0.9683617896549512,-0.38109940920086754,None
291,14.507,0.3031158447265625,-0.738616943359375,-0.5225982666015625,-0.014541113101352976,0.035433028984852566,0.02507015266087287,0.18932172656059265,0.026157034561038017,-0.003893807763233781,-0.5775839745935705,0.9680345865357954,-0.3176569578279155,None
292,14.557,0.3569793701171875,-0.723388671875,-0.4515228271484375,-0.029176023682815355,0.059122758313952084,0.03690308684753946,0.5868352651596069,-0.10472294688224792,0.09758275002241135,-0.5294970150855499,0.9693346235771104,-0.38615539380000286,None
293,14.606,0.4069366455078125,-0.678436279296875,-0.3488922119140625,-0.06370726793125658,0.10621142700361974,0.054620221277445036,0.7033983469009399,-0.12452887743711472,0.16218863427639008,-0.4573294832442997,0.9708459385703699,-0.4706439134390691,None
294,14.656,0.382965087890625,-0.637725830078125,-0.3003082275390625,-0.09442225129327031,0.1572349816937979,0.0740427256236692,0.5863699913024902,-0.4985900819301605,0.6798639893531799,-0.42603158062566104,0.9765193644566615,-0.4773873391838953,None
295,14.706,0.2235260009765625,-0.8046722412109375,-0.429718017578125,-0.014467169035900673,0.052080425906766536,0.02781243869131217,1.341927170753479,-0.6712889075279236,0.8823686242103577,-0.47106566714207265,0.9831987752888705,-0.23799317001246317,None
296,14.756,-0.21826171875,-1.6447296142578125,-1.1617279052734375,-0.4387651284968148,-0.7221710023607154,-0.8450832244330204,3.1974499225616455,-1.2579606771469116,0.35937148332595825,-0.3246351851731058,0.9927282898004846,-0.22050340974681482,None
297,14.806,-0.111572265625,-1.9220733642578125,-0.543792724609375,-0.3946957834297502,-0.9702901397766756,-0.42568359176117804,4.143293380737305,1.698545217514038,-1.2943754196166992,-0.12314792026881814,0.9789393695838076,-0.2831235178047502,None
298,14.856,0.56121826171875,-0.94342041015625,0.0004119873046875,0.04996416951122218,-0.08399088288580314,0.00003667842786254455,5.438074588775635,0.9047650098800659,-1.9859064817428589,0.0004366953067469204,0.9687055478380124,-0.5112540922075278,None
299,14.905,1.054290771484375,0.051116943359375,0.61572265625,0.48967947869421924,0.8462288964190761,0.39433821651807877,5.422344207763672,1.5795482397079468,-1.2663769721984863,0.26822872315612617,0.9461031737318946,-0.5646112927901558,None
300,14.955,2.169219970703125,0.62738037109375,0.8186492919921875,1.6150866931690215,1.3645495848925258,0.43197389717554424,4.2306623458862305,0.5194545984268188,0.2528162896633148,0.464515144613454,0.9373733568923744,-0.5541332775341036,None
301,15.005,2.7108612060546875,0.950592041015625,0.4678497314453125,2.271880176408906,1.6444157472317316,-0.10303057151116157,4.108088493347168,1.1529940366744995,2.6571426391601562,0.6353729933974149,0.9157463293477188,-0.4389810296457815,None
302,15.055,1.8194580078125,2.6903839111328125,-0.2699127197265625,1.7616362852171885,3.309425538650574,-1.053139450498867,4.269227981567383,0.7843038439750671,7.932205677032471,0.7845393242101513,0.8992913490018903,-0.057821722595311445,None
303,15.105,-8.696044921875,2.4338226318359375,1.1323089599609375,-8.338752581957028,2.774451678273242,0.26264578576120545,5.910613059997559,5.875749111175537,8.464425086975098,0.931124262354821,0.734112690862457,0.3572923399179713,None
304,15.155,-1.775543212890625,-0.8441162109375,4.432098388671875,-1.5717627167564872,-0.50801556861261,3.5125822835251945,0.45760059356689453,-0.3739776015281677,-3.2029871940612793,0.9392242196048896,0.7466806708394216,0.20378049613413785,None
305,15.204,0.2800750732421875,1.3314208984375,-1.3908538818359375,0.417873903073658,1.840270365693653,-2.240608965474869,-3.7823569774627686,-0.9306427240371704,-1.3395841121673584,0.8579396237028022,0.7768136469949217,0.13779882983147054,None
306,15.254,-2.6910400390625,-0.808441162109375,1.236083984375,-2.654320825435127,-0.3345724113325187,0.3562543949727289,0.9101704359054565,-2.1301417350769043,-2.030224561691284,0.8804233272760292,0.8393558486540954,0.03671921362737269,None
307,15.304,-1.3993988037109375,0.58941650390625,1.0847015380859375,-1.5080709877970246,1.1869998980935312,0.29029330336176995,-3.017784595489502,-1.59209144115448,-2.9122939109802246,0.7991410347957896,0.8799237534891988,-0.1086721840860871,None
308,15.354,-0.0777740478515625,-0.045654296875,1.1676788330078125,-0.3073895783043458,0.6186375318267646,0.45634693122429726,-2.1256935596466064,-2.157332420349121,-2.4559082984924316,0.7308594334087956,0.9259593837827181,-0.22961553045278332,Straight
309,15.404,0.1309051513671875,-0.288177490234375,0.837738037109375,-0.21005079108366115,0.47577863429868894,0.28990586837895516,-3.949408769607544,-0.9082534909248352,-2.325018882751465,0.5827510324631056,0.942147721749312,-0.34095594245084865,None
310,15.454,0.75604248046875,-0.4469451904296875,0.450225830078125,0.30731018021013057,0.3595075160845085,0.06516303667874129,-3.5328454971313477,-0.7398279905319214,-2.3482542037963867,0.4308798770576619,0.953899808826065,-0.44873230025861943,None
311,15.503,0.911468505859375,-0.4004364013671875,0.245941162109375,0.3906018608618078,0.41780617001260467,0.00267786337575171,-3.129798650741577,-1.4632139205932617,-1.6503915786743164,0.28497241398232903,0.9732858672637187,-0.5208666449975672,None
312,15.553,0.9980010986328125,-0.481597900390625,-0.17181396484375,0.4606311656239416,0.34020429398507523,-0.3612201643656383,-1.249132513999939,-0.4933796226978302,-0.3889903724193573,0.22458878775561356,0.9786530724398249,-0.5373699330088709,None
313,15.603,0.7731170654296875,-0.5822601318359375,0.4167022705078125,0.03943161643082127,-0.02969725958481284,0.02125324201372275,-0.013453491032123566,0.01810390315949917,1.0290443897247314,0.5819798024390077,0.9784666364880469,-0.7336854489988662,None
314,15.653,0.5062408447265625,-0.7304229736328125,0.3462066650390625,-0.024543924426311037,0.03541287995789488,-0.016785034852716763,-0.972145140171051,-0.06679527461528778,1.4573336839675903,0.42830542758878964,0.9791505223649858,-0.5307847691528735,None
315,15.703,0.2670440673828125,-0.9752349853515625,0.2097625732421875,0.008446967282277118,-0.03084800982299163,0.006635075665930801,-2.0731451511383057,0.5432329177856445,1.2750309705734253,0.21028011927967571,0.9732725269326918,-0.2585971001005354,None
316,15.753,0.2165374755859375,-1.2094268798828125,-0.1689300537109375,0.0006696742199923389,-0.2417692419683315,-0.29946659311351276,-1.5554288625717163,-0.03774844482541084,0.8797824382781982,0.13368856835384746,0.9737042456421907,-0.21586780136594516,None
317,15.803,0.039398193359375,-1.370941162109375,-0.0630340576171875,-0.1741361626900764,-0.3987320853555427,-0.159016294848912,-0.7136600613594055,-0.0043806335888803005,0.04778323322534561,0.09824827925677114,0.9737541211639801,-0.2135343560494514,None
318,15.852,0.2624969482421875,-1.1502532958984375,-0.0703277587890625,0.020441913715990773,-0.18161565008329505,-0.1264568187332684,-0.8105072379112244,0.18338580429553986,-0.5858395099639893,0.05784935387215931,0.9716262624273592,-0.24205503452619673,None
319,15.902,0.194854736328125,-1.035308837890625,-0.0052337646484375,0.00989515337579891,-0.05257526676178215,-0.0002657821149492541,-0.4161197245121002,0.5235527157783508,-0.7092493176460266,-0.005055204381338532,0.9651025031509912,-0.1849595829523261,None
320,15.952,0.312652587890625,-0.8974609375,0.11834716796875,-0.013808532049970124,0.0396370239653997,-0.005226889925795911,-0.40457144379615784,0.5273962020874023,-0.5334697961807251,0.13073705883858627,0.9578622470309522,-0.3264611199405951,None
321,16.002,0.24847412109375,-0.8382568359375,0.006866455078125,-0.03571240218560684,0.12048001267922492,-0.0009868939439650753,-0.34990260004997253,0.6710507869720459,-0.1932711899280548,0.008191075135823869,0.9476877097635259,-0.28418652327935684,None
322,16.052,0.2757568359375,-0.856475830078125,0.02899169921875,-0.030557748843526744,0.09490960837689,-0.003212689398113304,-0.031627435237169266,0.452077180147171,0.12240767478942871,0.03383061471142746,0.9402311020167143,-0.30631458478102674,None
323,16.102,0.165679931640625,-0.97747802734375,0.01434326171875,-0.0014163909850506695,0.008356419828913886,-0.00012261996002457462,-0.028592761605978012,0.5405141115188599,0.3135131895542145,0.014672163854665571,0.9306856223363198,-0.16709632262567567,None
324,16.151,0.2244873046875,-0.97467041015625,0.05804443359375,0.0004192999007398557,-0.0018205003031308564,0.00010841604285038997,-0.13826705515384674,0.43632325530052185,0.28082314133644104,0.05944756026086559,0.9224839979481108,-0.22406800478676014,None
325,16.201,0.2352294921875,-0.94635009765625,0.10784912109375,-0.004533270359128205,0.01823776775253827,-0.002078435060867148,-0.26479944586753845,0.476960152387619,0.2601468861103058,0.11323031360626912,0.9130163885808651,-0.2397627625466282,None
326,16.251,0.27301025390625,-0.99554443359375,-0.1539764404296875,0.01143610016946478,-0.041702264668933675,-0.00644990424827116,-0.003611512714996934,0.5210996866226196,0.6432636380195618,-0.15284819324186374,0.9020792782621008,-0.2615741537367852,None
327,16.301,-0.029876708984375,-1.783782958984375,0.07806396484375,-0.2845119079641046,-0.8204153302253725,0.16222884647385838,1.3261135816574097,0.9623319506645203,0.14364664256572723,-0.08703375941852375,0.8802775441689178,-0.2546351989797296,None
328,16.351,0.722747802734375,-1.37744140625,0.0205078125,0.41534527409034483,-0.42807969257087286,-0.04442308910691861,3.1086387634277344,0.11045220494270325,-1.099834680557251,0.06823486273847497,0.8776438808992376,-0.30740252864403017,None
329,16.401,1.1091461181640625,-0.678802490234375,0.33551025390625,0.7833706685706425,0.22590730961058747,0.06097330829292652,4.526675701141357,0.3329460024833679,-0.38739246129989624,0.2903778799376656,0.8695433683996585,-0.32577544959342003,None
330,16.45,1.2585906982421875,-0.2882080078125,0.438873291015625,0.9584344013577873,0.5257355567959962,-0.05852199552522952,5.078291416168213,0.13114337623119354,0.5395060777664185,0.5214388123177724,0.8662863970053493,-0.30015629688440015,None
331,16.5,1.04425048828125,-0.0792694091796875,0.322998046875,0.8122423551368253,0.634180550433207,-0.3381837596526738,3.9771361351013184,1.0243337154388428,1.4142972230911255,0.6797289966236298,0.8395764541654623,-0.23200813314442473,None
332,16.55,1.4161224365234375,-0.132354736328125,0.760589599609375,1.307058916815354,0.44342407428518793,-0.04970905515786761,4.1122894287109375,1.1934956312179565,2.4972147941589355,0.81516126909687,0.8056834148328724,-0.10906351970808353,None
333,16.6,1.6057891845703125,1.0890655517578125,0.9138031005859375,1.609239244695556,1.6189650087490517,0.06574964556937901,1.186060905456543,0.7290685772895813,2.2546193599700928,0.848058502215655,0.7835598822608302,0.0034500601252434484,None
334,16.65,-6.914794921875,3.0667877197265625,-0.9191741943359375,-6.376447748062343,3.3909217258794624,-1.6970684458272292,3.2736423015594482,2.899298667907715,11.300490379333496,0.923072119740894,0.6855871617969764,0.5383471738126567,None
335,16.7,-1.1579742431640625,-1.0029144287109375,3.258026123046875,-0.672790227253489,-0.977907764875079,2.3839716982719135,7.324028968811035,0.8741788864135742,-1.2380197048187256,0.9995909861140412,0.6531228008881241,0.4851840159105735,None
336,16.749,-0.8038787841796875,1.6093292236328125,0.7413482666015625,-0.5206870913239408,2.0341958590925957,-0.11847195133389643,-8.606837272644043,1.0080586671829224,-4.389063835144043,0.8965207966727345,0.6141417976471852,0.2831916928557467,None
337,16.799,-1.81915283203125,0.1485748291015625,0.057952880859375,-1.5787267271231793,0.5662705279712561,-0.8182466347901668,0.2819792330265045,-3.858069658279419,-0.8863120079040527,0.9026773489626306,0.754046717653663,0.24042610490807065,None
338,16.849,-1.8535919189453125,0.2148284912109375,1.4421234130859375,-1.790591664526082,0.8621572472128884,0.6825205895024026,-5.218423843383789,1.2299567461013794,-3.5952560901641846,0.7611147697759546,0.7122536688896399,0.0630002544192306,Straight
339,16.899,-0.6836700439453125,-0.101715087890625,0.3433380126953125,-0.7855473238837967,0.701803790800036,-0.2431587318992663,-4.690216064453125,-0.5279583930969238,-3.301926851272583,0.5895642626774235,0.730532648952487,-0.10187727993848415,None
340,16.949,0.3702239990234375,-0.269195556640625,0.48486328125,0.09767691906660336,0.6070204086289586,0.08741684282880213,-4.09360933303833,0.2131708562374115,-3.4797000885009766,0.41308481864598856,0.7232128092978325,-0.27254707995683414,None
341,16.999,1.0453643798828125,-0.5572357177734375,0.538818359375,0.66475365981959,0.3474473751780912,0.34728773231861776,-4.344184398651123,-0.39457952976226807,-2.2883458137512207,0.207119394415267,0.7366965102768769,-0.38061072006322244,None
342,17.048,1.0548553466796875,-0.58563232421875,-0.2732696533203125,0.6023998448963659,0.3031201390097381,-0.34677528583441053,-2.522217273712158,-0.5121615529060364,-1.5812050104141235,0.08242510162937103,0.7537698622719208,-0.45245550178332156,None
343,17.098,0.9373626708984375,-0.6881256103515625,0.197235107421875,0.4774920182242105,0.199846270568256,0.1922429631230622,-1.5379363298416138,0.7434216737747192,-0.16665290296077728,0.00562187330021236,0.7288282590870564,-0.459870652674227,None
344,17.148,0.7147064208984375,-0.712005615234375,0.239593505859375,0.02543437201136678,-0.025338258007096548,0.008526452514410171,-1.032973051071167,0.350012868642807,0.7091920971870422,0.3189319787047871,0.7167346333293364,-0.6892720488870707,None
345,17.198,0.4608154296875,-0.77056884765625,0.1013946533203125,-0.04918831379573907,0.0822519816783055,-0.010823057787174864,-0.28365302085876465,0.7417553663253784,1.5044002532958984,0.1304595911558813,0.6903846759057174,-0.5100037434832391,None
346,17.248,0.30828857421875,-1.116546630859375,0.3557281494140625,-0.14358571091831834,-0.2357472964767514,0.21429914608380232,0.567548394203186,-0.40290138125419617,1.3264778852462769,0.15853818635315337,0.704817406069822,-0.45187428513706834,None
347,17.298,0.0841064453125,-1.5305938720703125,0.151641845703125,-0.3277122853865954,-0.6314618464742195,0.00342938471265114,0.08320833742618561,-0.5114310383796692,0.8883250951766968,0.16264460187107596,0.7227251718578049,-0.4118187306990954,None
348,17.348,0.0054779052734375,-1.45623779296875,0.0221405029296875,-0.42775597244380154,-0.5718747475292972,-0.15167092091564163,0.6138935089111328,-1.0585503578186035,-0.4725758135318756,0.19284920071693176,0.7582761270819253,-0.43323387771723904,None
349,17.397,0.29669189453125,-0.9228973388671875,0.1557464599609375,-0.005485580548613367,0.017063586109945628,-0.0028796194538004694,0.2896949350833893,-0.8029406666755676,-1.1656317710876465,0.16640524431595388,0.7838312868025832,-0.30217747507986337,None
350,17.447,0.446197509765625,-0.602996826171875,0.1529998779296875,-0.13662850406731097,0.1846414480450037,-0.04684953184744259,-0.22904649376869202,-0.585112452507019,-0.7295221090316772,0.24593915170835387,0.801660258508266,-0.582826013832936,None
351,17.497,0.5598297119140625,-0.492095947265625,0.0930633544921875,-0.18546566704979162,0.16302618665964685,-0.0308309058120059,0.21024058759212494,-0.47723421454429626,0.09542878717184067,0.18582250295696737,0.8156947420792449,-0.7452953789638541,None
352,17.547,0.1279144287109375,-0.98583984375,0.15789794921875,0.0008343414830712936,-0.006430291606617344,0.0010299135949925486,1.536492109298706,-1.1254489421844482,1.3753045797348022,0.15815024512386874,0.8469390507349072,-0.1270800872278662,None
353,17.597,-0.09832763671875,-1.3849945068359375,0.2453155517578125,-0.2041677663927392,-0.41659328080185243,0.019490547902450722,1.405648112297058,-1.0112494230270386,0.42771804332733154,0.2271005917648555,0.8727287609086172,-0.10584012967398919,None
354,17.647,-0.04071044921875,-1.23828125,0.2330322265625,-0.15354115773987326,-0.27096175538262857,0.005959052127881781,0.029412217438220978,0.2634766399860382,-0.14065511524677277,0.2285325314047362,0.866221681177455,-0.11283070852112324,None
355,17.696,0.21844482421875,-0.8629150390625,0.035369873046875,-0.026768037701150188,0.10574085415447376,-0.004334193307576291,-0.034439198672771454,0.2241540104150772,-0.49224376678466797,0.04095443544248149,0.8605673564927064,-0.2452128619199002,None
356,17.746,0.43316650390625,-0.5995635986328125,0.1156768798828125,-0.1454230584929489,0.20128604471478928,-0.03883514888104336,0.026186596602201462,0.575615644454956,-0.060570135712623596,0.18944146230177203,0.8455538791737635,-0.5785895623991989,None
357,17.796,0.4966278076171875,-0.4843597412109375,0.276763916015625,-0.1683015455183542,0.16414403660518984,-0.09379216003354868,-0.2037254273891449,0.7178460359573364,0.7524979710578918,0.49612126427327946,0.8258508617203755,-0.6649293531355417,None
358,17.846,0.275421142578125,-0.67242431640625,0.309722900390625,-0.07325804120626905,0.1788551445915716,-0.08238181276481166,-0.4848441779613495,0.4053725302219391,1.2539336681365967,0.41836009811256314,0.8142527657441576,-0.34867918378439405,None
359,17.896,-0.26568603515625,-1.6216888427734375,0.062286376953125,-0.5401557869277346,-0.7525166868918525,-0.3490603366628433,0.20781578123569489,-0.004483165219426155,1.5624648332595825,0.42777510250398987,0.8143828715089972,-0.2744697517714846,None
360,17.946,-0.5854644775390625,-2.39697265625,0.104278564453125,-0.9149617242245163,-1.5718799553808895,-0.354691586427324,1.3122113943099976,0.40163877606391907,-1.1546560525894165,0.4861165849006903,0.8025653358983188,-0.3294972466854537,None
361,17.995,0.2622222900390625,-1.26824951171875,0.2316741943359375,-0.2113648140333486,-0.5202827269880252,-0.23336445330088945,0.9721808433532715,1.7032787799835205,-3.151762008666992,0.5280048124794147,0.7489122656997077,-0.4735871040724111,None
362,18.045,1.268798828125,-0.1129913330078125,0.35162353515625,0.6816715600748702,0.5236422901023806,-0.1483556654487147,2.1898701190948486,2.0080630779266357,-2.6829264163970947,0.6176436214769007,0.6787182767025758,-0.5871272680501298,None
363,18.095,1.68267822265625,0.3626708984375,0.5592498779296875,1.0521754349727277,0.8557147908990647,-0.04022819075144135,4.335387229919434,2.4961318969726562,-1.0939069986343384,0.7723371825911116,0.5820190076123128,-0.6305027876835222,None
364,18.145,3.1414794921875,0.8450775146484375,1.8498077392578125,2.5420195584882213,1.1753799929134596,1.120734313091942,5.258028030395508,2.3763742446899414,0.7874922156333923,0.9108809167756893,0.48152215756548944,-0.5994599336992787,None
365,18.195,1.973663330078125,2.3456878662109375,0.5854034423828125,1.7035014908270705,2.661394996304435,-0.3241797526140029,1.8260529041290283,0.38004374504089355,7.38530158996582,0.9447123958943218,0.4647820662430662,-0.2701618392510545,None
366,18.245,-7.5362091064453125,3.0337982177734375,1.0111236572265625,-7.281375682453694,3.3663496984566623,0.1031206623459825,-0.33986061811447144,2.0961148738861084,10.624731063842773,0.9390042514162668,0.3696039167371349,0.25483342399161873,None
367,18.294,-2.138946533203125,-0.4778594970703125,-1.50390625,-1.712604628105765,-0.8035870224556714,-2.3477866675736534,14.388835906982422,-1.8036551475524902,3.655388355255127,0.9329159647231166,0.45178527666717516,0.42634190509736003,None
368,18.344,-3.20562744140625,-0.8105926513671875,2.717041015625,-2.8981838535402282,-0.7640684257536474,1.7666127244261698,-8.345611572265625,-3.19564151763916,-2.558790445327759,0.9988040584088267,0.5879705175917669,0.30744358786602155,None
369,18.394,-0.830657958984375,2.0294036865234375,-0.3599700927734375,-0.6937331078310773,2.1385201605951587,-1.3445233824550082,-1.2293239831924438,-3.1201682090759277,-3.5029795169830322,0.9939145354433875,0.7065110032631641,0.1369248511532976,Straight
370,18.444,-1.5586090087890625,0.0951385498046875,1.761627197265625,-1.572634603771773,0.3575465032328814,0.7967721052113789,-3.103311061859131,-0.09701176732778549,-3.0276482105255127,0.9649500079095226,0.7099354497168213,-0.014025594982710594,None
371,18.494,-0.4048309326171875,-0.1091156005859375,0.4055328369140625,-0.5227426343430128,0.37000735439421634,-0.46425910637306966,-4.759006977081299,-1.1299885511398315,-2.083211898803711,0.8759021635606642,0.7485721301745664,-0.11791170172582527,None
372,18.544,0.5803375244140625,-0.554962158203125,0.195098876953125,-0.12196098208757489,0.11662821545828905,-0.04100105479377736,-3.631960391998291,-0.975356936454773,-2.7464990615844727,0.3316557229611733,0.7800050101178554,-0.7022985065016374,None
373,18.593,1.31475830078125,-0.5221099853515625,0.50543212890625,0.5410848742788775,0.1055611138344914,0.4190699822756292,-4.0265045166015625,-1.5782595872879028,-2.11995005607605,0.1363072088191309,0.8269080208201535,-0.7736734265023725,None
374,18.643,1.3330841064453125,-0.1033782958984375,0.01678466796875,0.500952318009211,0.44997259391009425,0.05365578704915436,-4.065339088439941,-0.2849166989326477,-1.9664400815963745,-0.0664850090714984,0.8348348062636861,-0.8321317884361015,None
375,18.693,1.87628173828125,-0.0869140625,0.18988037109375,1.0532861931523425,0.4758190029442564,0.2674034628386153,-1.407319188117981,-0.5445964932441711,0.3255240321159363,-0.1364728253284407,0.8495135065451378,-0.8229955451289074,None
376,18.743,0.8942413330078125,-0.6736907958984375,0.31494140625,0.13963353174718451,-0.023831941558048797,0.4057738658225445,-0.03945712745189667,0.13423264026641846,2.2321648597717285,-0.13842695643667507,0.845953564912715,-0.754607801260628,None
377,18.793,-0.1199798583984375,-1.5559539794921875,0.2124176025390625,-0.8198761319196379,-0.8434504508471637,0.26225662319082504,1.3807499408721924,-1.141164779663086,1.5960789918899536,-0.06977865510456129,0.8749870508075359,-0.6998962735212004,None
378,18.843,-0.0128173828125,-1.468048095703125,0.4499664306640625,-0.7264770790119537,-0.7688871326826212,0.49313801632807425,0.16331994533538818,-0.15297569334506989,-0.3891320526599884,-0.06163032646955044,0.8786645507069576,-0.7136596961994537,None
379,18.893,0.4156951904296875,-0.80963134765625,0.1260223388671875,-0.03673925241687531,0.07155543564362976,-0.011137888107439209,-1.4256739616394043,-0.1899249255657196,-0.8741037845611572,0.15380195798877724,0.8831587488306177,-0.4524344428465628,None
380,18.942,0.6932830810546875,-0.3871917724609375,-0.1700897216796875,0.23054485906813693,0.49119890917039355,-0.2896854922402363,-0.38187360763549805,-0.8548943996429443,-0.23176531493663788,0.1349085715603231,0.9023963981306138,-0.46273822198655057,None
381,18.992,0.5365753173828125,-0.4980621337890625,0.049285888671875,-0.19468989733755004,0.18071585209711272,-0.01788279165079737,0.5269149541854858,-0.822346568107605,1.0318704843521118,0.09847433833193954,0.9193464420798335,-0.7312652147203625,None
382,19.042,0.3754730224609375,-0.9006805419921875,0.10552978515625,-0.007077235334614296,0.016976794005619467,-0.0019891152750921154,-0.48180150985717773,-0.17152941226959229,1.5203336477279663,0.11637067240319278,0.9226869930939137,-0.3825502577955518,None
383,19.092,0.1861419677734375,-1.3907623291015625,-0.0855255126953125,-0.13529380650240252,-0.4462800249254354,-0.15358592787069,-0.8939640522003174,0.5709734559059143,1.3061920404434204,0.07187470648749122,0.9113055689779566,-0.32143577427584,None
384,19.142,0.179779052734375,-1.5279083251953125,-0.1081695556640625,-0.148739922932295,-0.5860303767609533,-0.17846331698044307,0.05113322660326958,0.6671673655509949,-0.14979508519172668,0.0744245177614365,0.8970664575494515,-0.32851897566667,None
385,19.192,0.3182525634765625,-1.2450408935546875,0.0340423583984375,-0.050383420484875985,-0.31951814129698153,-0.052647585551844664,0.37800082564353943,0.8702731132507324,-0.8561229109764099,0.09325772827956236,0.8769948935908326,-0.3686359839614385,None
386,19.241,0.3337249755859375,-0.942230224609375,0.1322174072265625,0.0027443015244625335,-0.007748187971997611,0.0010872558506455632,0.372576504945755,0.8320109248161316,-0.840648889541626,0.1389624159821975,0.8562528522149345,-0.33098067406147497,None
387,19.291,0.259307861328125,-0.706451416015625,0.2160491943359375,-0.07189073218011677,0.19585719186036532,-0.059897662524318884,0.0013816480059176683,0.7543312907218933,-0.5937680006027222,0.2924525669973212,0.8361657641387674,-0.33119859350824177,None
388,19.341,0.205841064453125,-0.6857452392578125,0.1200408935546875,-0.07769978138382361,0.25885143626170637,-0.04531239289448044,-0.35803723335266113,0.8912052512168884,0.009283512830734253,0.17242977687880004,0.810903565566694,-0.2835408458369486,None
389,19.391,0.1031036376953125,-0.780120849609375,0.09625244140625,-0.02695136769506548,0.2039241711969687,-0.025160459881674355,0.020900754258036613,0.7703563570976257,0.1461566835641861,0.12245292083562966,0.7877678264087912,-0.13005500539037798,None
390,19.441,0.1065826416015625,-0.8913116455078125,0.23162841796875,-0.008385276993173013,0.07012300429523488,-0.018223121654454832,0.0059596216306090355,0.5605772733688354,0.2844165563583374,0.251519312591681,0.7701956621115421,-0.11496791859473551,None
391,19.491,0.100372314453125,-0.9753265380859375,0.250518798828125,0.0011878673110001098,-0.01154261031496151,0.002964792567953206,-0.28262263536453247,0.3668067753314972,0.2838383615016937,0.2487807276920228,0.7583691779210168,-0.09918444714212489,None
392,19.54,-0.0176849365234375,-1.0660400390625,0.2120819091796875,-0.0014165736974392912,-0.08539042691794518,0.01698788422839423,-0.27325204014778137,0.3786067068576813,0.3363947868347168,0.19511984683304917,0.7458947642133785,0.01626836282599821,None
393,19.59,0.08514404296875,-0.97454833984375,0.2843475341796875,0.001566904497061497,-0.01793459792443064,0.005232843244218799,-0.17390334606170654,0.16831417381763458,0.17183993756771088,0.2800946551508657,0.7402630178475336,-0.0835771384716885,None
394,19.64,0.068634033203125,-0.94549560546875,0.2696990966796875,-0.0010026691307340324,0.013812670079325073,-0.003940012646892421,-0.17685626447200775,-0.006659234408289194,0.34370648860931396,0.2743050071510735,0.7404868327620574,-0.06963670233385903,None
395,19.69,0.0798492431640625,-0.9528656005859375,0.18634033203125,-0.0021152806568010135,0.025242295275225035,-0.00493632856503981,-0.22945636510849,-0.1121813952922821,0.44285517930984497,0.19192243205282553,0.7442448569327564,-0.08196452382086351,None
396,19.74,-0.022308349609375,-1.0135955810546875,0.1365203857421875,-0.0005013737119076503,-0.022780267825505685,0.003068256224649346,0.05642759054899216,-0.25686216354370117,0.5190743207931519,0.13348387203215095,0.7527612423090687,0.02180697589746735,None
397,19.79,-0.079864501953125,-1.0532379150390625,0.207916259765625,-0.005677553827419815,-0.07487450380925742,0.014780731458239105,0.15143506228923798,-0.5079731941223145,0.3847298324108124,0.1936692125699609,0.7692364337558815,0.07418694812570518,None
398,19.839,-0.06097412109375,-1.01995849609375,0.193603515625,-0.0023428681337935575,-0.03919086024406837,0.00743901673712985,-0.17837639153003693,-0.5038769841194153,0.3133978545665741,0.18648530799925195,0.7850885838975769,0.05863125295995644,None
399,19.889,-0.0197906494140625,-1.0121917724609375,0.1016387939453125,-0.0003398916953725843,-0.017383743725937206,0.0017455810199516059,-0.3647041916847229,-0.4369291365146637,0.38956212997436523,0.09991211468719478,0.7984315011372829,0.019450757718689916,None
400,19.939,-0.0735626220703125,-1.0667724609375,0.0680999755859375,-0.004906966697771395,-0.0711586508555474,0.004542582943819429,-0.08716819435358047,-0.31783443689346313,0.3120836019515991,0.06370771630712957,0.8078984576419048,0.0686556553725411,None
401,19.989,-0.152618408203125,-1.0732574462890625,0.1496124267578125,-0.013155512862349145,-0.09251342813427821,0.012896401081317593,0.14696760475635529,-0.3305414319038391,0.1622147411108017,0.1380652967395045,0.8175274425731279,0.13946289534077586,None
402,20.039,-0.0921173095703125,-0.99371337890625,0.2198486328125,-0.0019743810718434174,-0.02129859084358643,0.004712089197136948,-0.015790680423378944,-0.27915334701538086,-0.03795510530471802,0.21601597943647943,0.8254856250328362,0.09014292849846908,None
403,20.089,-0.0499725341796875,-0.94586181640625,0.1482391357421875,0.002152180334643955,0.04073568078897993,-0.0063842540308597095,-0.10180465877056122,-0.3244633078575134,-0.03430790454149246,0.1548338735634705,0.8345333255051255,0.052124714514331455,None
404,20.138,-0.048095703125,-0.9500732421875,0.0940704345703125,0.0022173090813580043,0.043800295888856144,-0.004336837083303305,-0.02196601964533329,-0.3145211935043335,-0.005541239399462938,0.09853206266980158,0.8430941667031514,0.050313012206358004,None
405,20.188,-0.080902099609375,-0.976470947265625,0.0835723876953125,0.0013677949771381398,0.016508991280078877,-0.0014129409826078854,0.05240408703684807,-0.17873086035251617,-0.03310894966125488,0.08527440152580111,0.847866206073037,0.08226989458651314,None
406,20.238,-0.0630950927734375,-0.966064453125,0.1029510498046875,0.0017121261602596333,0.026214783907704264,-0.002793643338155613,0.04773503169417381,0.07249204069375992,-0.02050820365548134,0.1059674576599972,0.8459388396564304,0.06480721893369713,None
407,20.288,0.01416015625,-0.925018310546875,0.114501953125,-0.0010301186506865932,0.0672929448727615,-0.008329752537449261,0.02605210617184639,0.21738478541374207,-0.0703873485326767,0.12284587948267274,0.8400926374027959,-0.015190274900686593,None
408,20.338,0.0678558349609375,-0.9202423095703125,0.125457763671875,-0.005011028359858838,0.06795819864059516,-0.009264824640152908,0.16152924299240112,0.20800885558128357,0.14292919635772705,0.13508167907696494,0.8344056565166682,-0.07286686332079634,None
409,20.388,-0.0288543701171875,-0.972564697265625,0.1591033935546875,0.00041221739669691435,0.013894189545567426,-0.002272972393103617,0.27333858609199524,0.18966101109981537,0.20865175127983093,0.16144552248021354,0.8291416259488136,0.029266587513884414,None
410,20.438,0.0208892822265625,-0.9430389404296875,0.175140380859375,-0.0008841772243949955,0.03991585463789915,-0.007413138189631879,-0.08341153711080551,0.22245784103870392,0.14258991181850433,0.18259680725023497,0.822872338441225,-0.021773459450957496,None
411,20.487,0.023834228515625,-0.931640625,0.0898590087890625,-0.0016224136161184233,0.06341746846717444,-0.006116769388810353,-0.3047841489315033,0.27151167392730713,0.18316049873828888,0.0960068914024765,0.8150827467785363,-0.025456642131743423,None
412,20.537,0.0392608642578125,-0.982208251953125,0.0515289306640625,-0.0006245146590713319,0.015623788808558747,-0.0008196603201258354,-0.18206541240215302,0.22410953044891357,0.3418028652667999,0.05239027993781397,0.8085398793379798,-0.03988537891688383,None
413,20.587,-0.0064239501953125,-1.096282958984375,0.1057586669921875,-0.028563220365308093,-0.09765189630500304,0.05836823158367828,-0.09988904744386673,0.1085808053612709,0.3550976514816284,0.047402053826329144,0.8053333074409549,-0.022139270169995593,None
414,20.637,0.03802490234375,-1.0853729248046875,0.1201629638671875,0.0032247937054407094,-0.09204767297821137,0.010190710445564119,-0.266069233417511,0.019476495683193207,0.30063146352767944,0.11003890478086627,0.8047556206338152,-0.03480010863830929,None
415,20.687,0.2349395751953125,-1.0279083251953125,0.105743408203125,0.013236678391216533,-0.057913154499207975,0.005957665860306313,-0.7424922585487366,0.07867803424596786,0.36618703603744507,0.10233235852234696,0.8024142109540168,-0.22170289680409597,None
416,20.737,0.1768951416015625,-1.174530029296875,-0.100341796875,-0.012684359645067145,-0.19625219461187027,-0.18419935986783756,-0.3400252163410187,-0.15093545615673065,0.656532347202301,0.08540637567161723,0.806894986698058,-0.18957950124662964,None
417,20.786,-0.0310211181640625,-1.2652740478515625,-0.043060302734375,-0.2162877030709598,-0.28767213211327547,-0.14291413021117547,0.3255610466003418,-0.035832565277814865,0.08781453967094421,0.10161291998993961,0.8079519967950366,-0.1852665849068973,None
418,20.836,0.11517333984375,-1.0426025390625,0.0086517333984375,0.005377824371168863,-0.0486825627495,0.0004039780628580028,0.40723222494125366,0.18562711775302887,-0.4081616699695587,0.008297922946999254,0.80244825235958,-0.10979551547258114,None
419,20.886,0.1317291259765625,-0.906524658203125,0.059051513671875,-0.011774947135330754,0.08103204092551819,-0.005278471610532895,0.7999318242073059,0.004296744242310524,-0.40625402331352234,0.06500278185819601,0.8023200358129124,-0.14350407311189325,None
420,20.936,0.187469482421875,-0.8524322509765625,0.1245574951171875,-0.02516623327617093,0.11443200569536782,-0.016720817372080643,0.5225260257720947,-0.1345791220664978,-0.10699462890625,0.1445847424485938,0.8063183156676219,-0.21263571569804593,None
421,20.986,0.071319580078125,-0.8782958984375,0.0925140380859375,-0.009173841936208488,0.11297525499532735,-0.011900086362694656,0.40806499123573303,-0.3244662284851074,0.11494762450456619,0.10475403663742025,0.8158075814459419,-0.08049342201433349,None
422,21.036,-0.014312744140625,-0.911956787109375,0.21246337890625,0.0009706726178348567,0.061847782172194,-0.014409003764107087,0.275897353887558,-0.5129517316818237,0.1670353263616562,0.22689888405949793,0.8303702517336382,0.015283416758459857,None
423,21.085,0.107330322265625,-0.879119873046875,0.157257080078125,-0.011991801212877934,0.09822229671292981,-0.017570017529133092,-0.463548481464386,-0.545950174331665,0.28543412685394287,0.1760851211758762,0.8452695053503926,-0.11932212347850293,None
424,21.135,0.0665435791015625,-0.958160400390625,0.0956878662109375,-0.002397561444739821,0.034522465801649305,-0.0034476284842844818,-0.5763924717903137,-0.505388081073761,0.5450769066810608,0.09937192742992694,0.8585006711496321,-0.06894114054630232,None
425,21.185,-0.0048980712890625,-1.072296142578125,0.095123291015625,-0.00034815168773521393,-0.07621810499658699,0.006761301001063105,-0.6795763969421387,-0.2431575208902359,0.4941314160823822,0.08836290465348828,0.8646717792164793,0.004549919601327286,None
426,21.235,-0.021148681640625,-1.439605712890625,0.0535888671875,0.008206551453824675,-0.44099151468023967,0.00990874101323349,-0.8953084349632263,0.5258907079696655,0.49619030952453613,0.04369895857770319,0.8511656756815856,0.029355233094449675,None
427,21.285,-0.23455810546875,-1.99652099609375,-0.271392822265625,-0.24689550705867871,-1.000904829626324,-0.36410871945006507,0.9828691482543945,0.8584718108177185,-0.8339433073997498,0.09272295420194146,0.8278581360573083,-0.012337401589928711,None
428,21.335,0.3306884765625,-1.7105560302734375,0.4617767333984375,0.20963457593815743,-0.7514392886683152,0.2059622906544737,3.355894088745117,0.36774179339408875,-2.1802761554718018,0.25770965619359626,0.8174047693574837,-0.12105390062434258,None
429,21.384,0.6067962646484375,-0.95074462890625,0.0461273193359375,0.3647437885114872,-0.08586020823145368,-0.39362890594119615,4.194779396057129,0.36600035429000854,-2.462583065032959,0.4532339715725646,0.8067265141490169,-0.2420524761369503,None
430,21.434,1.9061737060546875,-0.0029144287109375,-0.176177978515625,1.5967244314803124,0.7097702832264149,-0.8057188015256711,5.062848091125488,0.6978816390037537,-1.402662992477417,0.6620362421509914,0.7856198296231283,-0.3094492745743751,None
431,21.484,2.515899658203125,0.8710784912109375,0.0345458984375,2.2535670896968054,1.3502599421599097,-0.8030499232851941,6.552363872528076,1.508073329925537,0.9835037589073181,0.8679951606510649,0.7367787127794098,-0.2623325685063194,None
432,21.534,0.6656646728515625,2.4735565185546875,-0.3690032958984375,0.7924486939431915,2.714084931989414,-1.3313295889645735,5.494380950927734,2.3199610710144043,7.8512959480285645,0.9701551087877724,0.6535729332383888,0.12678402109162898,None
433,21.584,-5.7419891357421875,3.2169036865234375,1.7700653076171875,-5.253288758674696,3.4292157061289705,0.923841018326747,-0.017851701006293297,4.155323028564453,7.669466972351074,0.9699382837003757,0.48339555567643006,0.4887003770674919,None
434,21.634,-1.3691864013671875,-0.5870513916015625,2.3381195068359375,-0.771272234320106,-0.7906902841052157,1.5628583570907177,10.053757667541504,-3.4000608921051025,2.6059370040893555,0.9671902538606388,0.6245322479027078,0.5979141670470814,None
435,21.683,-2.714111328125,1.0064697265625,0.6215057373046875,-2.2992892412891686,1.15011007059146,-0.27698749463443395,-8.307904243469238,0.7087662220001221,-4.26298189163208,0.987460953546042,0.5964686286169056,0.41482208683583127,None
436,21.733,-1.0498199462890625,0.8285980224609375,0.0698699951171875,-0.7278188013779854,1.0962185657569283,-0.8382569274448045,-2.561124801635742,-1.6020543575286865,-1.998096227645874,0.9592154276963567,0.6587806699968008,0.3220011449110771,Straight
437,21.783,-1.2945098876953125,0.0476226806640625,1.353546142578125,-1.1254691328788606,0.5869903113382797,0.5286171867328563,-5.849676132202148,1.2528393268585205,-3.159722328186035,0.8369737937703997,0.6103916283610108,0.16904075481645198,None
438,21.833,-0.343719482421875,-0.1268157958984375,0.584075927734375,-0.3276131652075274,0.6760011936700537,-0.011932015002947716,-7.062261581420898,2.3102686405181885,-3.074986457824707,0.5960852640208647,0.5150290014359881,0.01610631721434759,None
439,21.883,0.4367828369140625,-0.3226318359375,0.7380523681640625,0.27627932341817574,0.6208899170974211,0.4482156491214522,-6.8116044998168945,1.6252611875534058,-3.5461554527282715,0.2936437310394187,0.44374955176413367,-0.16050351349588673,None
440,21.933,1.0266571044921875,-0.2845001220703125,-0.004150390625,0.7364308481746956,0.6723245408555221,0.011827236257503718,-6.294668674468994,-0.36552685499191284,-2.665250062942505,-0.016696266664248737,0.460052890371095,-0.2902262563174919,None
441,21.983,1.0688934326171875,-0.4833831787109375,-0.47625732421875,0.7763579314922573,0.45864185821560055,-0.31190462303881605,-3.1206369400024414,-1.3531463146209717,-0.04827991500496864,-0.17187126769956754,0.5190268796304754,-0.2925355011249302,None
442,22.032,0.4775543212890625,-0.9102935791015625,-0.298919677734375,0.03146497797069875,-0.059977192408153135,-0.01969514389385546,-1.0940138101577759,-1.779260277748108,1.7502232789993286,-0.3119867509973518,0.5929159118153386,-0.44608934331836375,None
443,22.082,-0.1193084716796875,-1.14990234375,-0.4134521484375,-0.4654854949310655,-0.2839590932635371,-0.052476033563186086,-1.5534285306930542,-1.4155210256576538,2.1779592037200928,-0.38476653318022247,0.6483773623479138,-0.346177023251378,None
444,22.132,-0.1048736572265625,-1.0772247314453125,-0.779449462890625,-0.38223840959572525,-0.22068822573247893,-0.344232265936688,-1.503238558769226,-1.0161887407302856,1.4488587379455566,-0.452990415240285,0.6862061714147188,-0.27736475236916275,None
445,22.182,-0.0998077392578125,-1.0400848388671875,-0.6512298583984375,-0.32097298376845707,-0.17445173834147,-0.2020469670337064,-0.17083166539669037,-1.1101900339126587,1.1608202457427979,-0.4605887508685313,0.7255065104070784,-0.22116524451064457,None
446,22.232,-0.2115936279296875,-1.02960205078125,-0.4438018798828125,-0.39850667253491323,-0.1668349949510688,0.02598160336295463,-0.3991695046424866,-0.4907209873199463,0.699805498123169,-0.4782112573498997,0.742172527889827,-0.18691304460522576,None
447,22.282,-0.1883697509765625,-0.8860015869140625,-0.3362579345703125,0.006588694136584444,0.030990078982646718,0.011761446147258825,-0.6267755031585693,-0.27403342723846436,-0.046964313834905624,-0.3548279966188258,0.7512855572542878,0.19495844511314694,None
448,22.331,-0.3487701416015625,-0.910736083984375,-0.4933013916015625,-0.029646135361417747,-0.07741432537872783,-0.0419315706391597,-0.3889911472797394,-0.5169342160224915,-0.17305193841457367,-0.4762727075317432,0.7680909648236879,0.31912400624014475,None
449,22.381,-0.451324462890625,-0.8972625732421875,-0.4891357421875,-0.1452568998724622,-0.06568825627733377,-0.025663194745302653,-0.24105708301067352,-0.2870118021965027,-0.27490827441215515,-0.4868359029706131,0.7772008282312366,0.3060675630181628,None
450,22.431,-0.5068359375,-0.8347625732421875,-0.4806365966796875,-0.04118655067965071,-0.06783455647975833,-0.03905753732714101,-0.11700890958309174,0.22371432185173035,-0.19066421687602997,-0.4989767024992207,0.7701137124660914,0.4656493868203493,None
451,22.481,-0.4496307373046875,-0.8075714111328125,-0.3950042724609375,-0.00231286267804659,-0.004154079384925957,-0.0020318687394915713,0.29726576805114746,0.237208291888237,-0.06382105499505997,-0.43938212098950585,0.7624938876338095,0.4473178746266409,None
452,22.531,-0.464630126953125,-0.8508148193359375,-0.3166351318359375,-0.009028239290443996,-0.016532203435003723,-0.00615254494305445,0.7418802380561829,-0.20354141294956207,0.16518603265285492,-0.34878487040580874,0.76903880559234,0.455601887662681,None
453,22.581,-0.5483245849609375,-0.944732666015625,-0.358306884765625,-0.09282864721668638,-0.1001148058439173,-0.07698123542406399,0.6950269937515259,-0.49634796380996704,-0.002380333375185728,-0.31601177774230704,0.7846636955289619,0.4554959377442511,None
454,22.63,-0.5021514892578125,-0.91644287109375,-0.346221923828125,-0.058541069873188745,-0.0662608265766561,-0.06267248017828725,-0.007843808270990849,-0.2358119934797287,-0.26612091064453125,-0.3163838461498115,0.7919182338417304,0.44361041938462376,None
455,22.68,-0.4434661865234375,-0.8745574951171875,-0.4740142822265625,-0.03629121607324265,-0.0715697295268175,-0.038791130554839126,-0.19808246195316315,-0.18188750743865967,-0.37287023663520813,-0.47651291175521243,0.7974386811388189,0.40717497045019485,None
456,22.73,-0.4657745361328125,-0.910797119140625,-0.5774383544921875,-0.07881949027656787,-0.09510886352508074,-0.14741688742657427,0.23045983910560608,-0.22835567593574524,-0.44063571095466614,-0.4663508610434371,0.8042760432983174,0.38695504585624463,None
457,22.78,-0.4693450927734375,-0.944732666015625,-0.572662353515625,-0.11219020104236482,-0.1041384748690437,-0.16542558071239383,0.6804032921791077,0.04917287081480026,-0.6421397924423218,-0.435992589027396,0.802812550505027,0.3571548917310727,None
458,22.83,-0.3141632080078125,-0.9457244873046875,-0.4369659423828125,-0.025445447774148755,-0.07659834900160123,-0.035391776575273204,1.32578444480896,0.09363887459039688,-0.8902230858802795,-0.41943616765154934,0.800012239293624,0.28871776023366374,None
459,22.88,-0.2693023681640625,-0.9956817626953125,-0.3057403564453125,-0.01897887906659468,-0.07016991306773757,-0.021546818508548005,1.9647969007492065,0.011839615181088448,-0.8727397322654724,-0.2935391631424146,0.7996569203410817,0.2503234890974678,None
460,22.929,-0.2493438720703125,-0.98504638671875,-0.1078948974609375,-0.00532613239747598,-0.02104117269759853,-0.0023046987444192424,2.0177721977233887,-0.0287616066634655,-1.2401208877563477,-0.10888160603130734,0.8005195988115248,0.24401773967283652,None
461,22.979,-0.2341461181640625,-0.9571685791015625,0.04498291015625,0.0032240720209396334,0.013179720677844342,-0.0006193916140587313,1.7499125003814697,0.04780028015375137,-1.3439748287200928,0.046943995561002316,0.7990849627141469,0.23737019018500213,None
462,23.029,-0.2097320556640625,-0.8900604248046875,0.0408935546875,0.01939542122969498,0.08231024487081384,-0.0037817190902567355,1.0285340547561646,0.3796202838420868,-1.5803331136703491,0.045896278896112225,0.7875299759499325,0.22912747689375748,None
463,23.079,-0.0786285400390625,-0.8229827880859375,0.072723388671875,0.016113456034904633,0.1686550070332975,-0.014903305154736188,0.9277169704437256,0.49072498083114624,-1.4468657970428467,0.08802263190758307,0.7721733377091717,0.09474199607396713,None
464,23.129,-0.0728912353515625,-0.867034912109375,0.0977783203125,0.01035877795069405,0.12321676380873703,-0.013895551414706123,1.071736454963684,0.28936442732810974,-1.2926440238952637,0.11206287641317342,0.7628995599095124,0.08325001330225655,None
465,23.179,-0.0479888916015625,-0.9623870849609375,0.1783905029296875,0.000981532074144316,0.019684009363547195,-0.0036486777357145894,1.0166857242584229,0.1778714656829834,-1.2160696983337402,0.18225784833225087,0.7571196183627066,0.048970423675706816,None
466,23.228,0.0574798583984375,-0.978424072265625,0.3057861328125,0.001495063088626819,-0.02544901390202514,0.007953561002410736,0.3424345850944519,0.248734712600708,-1.2940493822097778,0.29830041979251093,0.7489366515571564,-0.05598479530981068,None
467,23.278,0.10198974609375,-0.9817047119140625,0.165374755859375,0.00007614481567888576,-0.0007329337232693245,0.00012346761105977433,0.0880102813243866,0.3012719750404358,-1.3941514492034912,0.16611621320445305,0.7388702920968192,-0.10191360127807111,None
468,23.328,0.3242950439453125,-0.9934234619140625,0.258056640625,0.02301938072040116,-0.07051601100088078,0.018317591245632342,0.36464986205101013,0.33750399947166443,-1.3146260976791382,0.25142079196535216,0.7273943150712934,-0.30127566322491134,None
469,23.378,0.21783447265625,-1.023895263671875,0.2636260986328125,0.016041757978125626,-0.07540165619558581,0.019413943162515795,0.3814972937107086,0.30797886848449707,-1.4929769039154053,0.24934154700653743,0.7167414330957849,-0.20179271467812437,None
470,23.428,0.2462921142578125,-0.9219207763671875,0.3235015869140625,0.0018568877821849572,-0.006950703358641452,0.0024389986909177375,0.2955014109611511,0.3913632333278656,-1.4495396614074707,0.33110649761205846,0.7029594407083881,-0.24443522647562754,None
471,23.478,0.3561859130859375,-0.7231292724609375,0.3472442626953125,-0.04962998054363682,0.10075887452099075,-0.048384075193057985,-0.029084116220474243,0.1690036654472351,-1.3981494903564453,0.4328751465474854,0.6969243914380172,-0.4058158936295743,None
472,23.528,0.43218994140625,-0.666046142578125,0.2703399658203125,-0.08309316572021774,0.12805453621266427,-0.05197576673722337,-0.38410213589668274,0.1295180469751358,-0.960949182510376,0.37608891738364364,0.6922656519133908,-0.5152831071264677,None
473,23.577,0.430206298828125,-0.6735687255859375,0.264923095703125,-0.08073023796914525,0.1263983434302326,-0.049714066525512524,-0.17580537497997284,0.004060788080096245,-0.6080558896064758,0.36601956063632923,0.6921191157300043,-0.5109365367972702,None
474,23.627,0.592620849609375,-0.6484832763671875,0.313018798828125,-0.0428410187549888,0.046879356714255915,-0.02262837063545592,-0.1665133535861969,-0.0005432848702184856,-0.2418096959590912,0.4347016573882266,0.692138722171922,-0.6354618683643638,None
475,23.677,0.6361236572265625,-0.653289794921875,0.3072967529296875,-0.024974634430934728,0.025648588321284582,-0.012064673242452417,-0.05962418019771576,-0.04700346291065216,0.19355268776416779,0.42564537054243556,0.6938330807000898,-0.6610982916574972,None
476,23.727,0.6238861083984375,-0.7660064697265625,0.2980804443359375,0.01929640945993827,-0.023692103878943716,0.009219442825345092,0.09871459007263184,-0.29611554741859436,0.21642658114433289,0.3626460264047462,0.7044188158249054,-0.6045896989384992,None
477,23.777,0.6249542236328125,-0.7829132080078125,0.2458038330078125,0.01907012038592759,-0.023890148372233133,0.007500563256510467,0.04188806191086769,-0.4012472927570343,-0.02474076673388481,0.2995442073501845,0.7185160583919423,-0.6058841032468849,None
478,23.827,0.692596435546875,-0.7343597412109375,0.1726837158203125,0.01630293534237759,-0.01728599623755467,0.004064779010127334,0.1731848269701004,-0.4799564778804779,-0.27459293603897095,0.22890517238919852,0.7349983066055263,-0.6762935002044974,None
