Index,Time,Raw Acceleration X,Raw Acceleration Y,Raw Acceleration Z,Acceleration X,Acceleration Y,Acceleration Z,Angular Velocity X,Angular Velocity Y,Angular Velocity Z,Orientation X,Orientation Y,Orientation Z,Punch Type
0,0,-0.1873931884765625,-0.825927734375,-0.64404296875,-0.011269295165418164,-0.049668952749267525,-0.03873091851982491,-0.975803792476654,0.5532530546188354,0.10028745234012604,-0.6149245461183516,0.027659124852541864,0.17612389331114434,None
1,0.05,-0.00927734375,-0.7641448974609375,-0.6410064697265625,0.000023781815223559294,0.0019588314549024988,0.0016431747956024978,-0.3945971131324768,0.03479499742388725,-0.5955214500427246,-0.64267744443731,0.029398166382809683,0.00930112556522356,None
2,0.1,0.125396728515625,-0.6574554443359375,-0.7175445556640625,-0.002396737799201909,0.012566103863983158,0.01371460148545478,-0.6759384870529175,0.4610115587711334,0.19003412127494812,-0.7373044627532344,0.05242893140244456,-0.1277934663148269,None
3,0.15,0.0521240234375,-0.7675018310546875,-0.550384521484375,-0.0029820456214583943,0.043909225033295085,0.03148781778864296,-0.30840471386909485,0.6516233086585999,0.3737432360649109,-0.5827578362237354,0.08493170544845988,-0.055106069058958394,None
4,0.2,-0.0010528564453125,-0.7525634765625,-0.8203887939453125,-0.04930183216248291,0.08451908772668548,-0.27544401059081025,0.9007391333580017,-0.6946828961372375,0.13732562959194183,-0.5455801988136157,0.05027879326052507,-0.04824897571717041,None
5,0.25,-0.03875732421875,-0.8024444580078125,-0.6648101806640625,-0.0015900462050713188,-0.032920842471848566,-0.027274300436516574,0.45581573247909546,-0.35287630558013916,-0.07353334128856659,-0.6379766851001913,0.03265038196035905,0.03716727801367868,None
6,0.299,-0.00604248046875,-0.731353759765625,-0.650360107421875,0.00013141111972811426,0.015905391334769092,0.014143951376393127,-0.18740105628967285,0.05778447166085243,-0.0535053014755249,-0.6645167235901144,0.03553792481422057,0.006173891588478114,None
7,0.349,0.1352691650390625,-0.8021392822265625,-0.5911712646484375,0.00075177770249088,-0.004458003614466244,-0.003285518728438075,0.05524487793445587,-0.09323034435510635,0.02953631989657879,-0.5932779103685413,0.03087898290158871,-0.13451738733657162,None
8,0.399,-0.0949554443359375,-0.7196807861328125,-0.58990478515625,0.0065594078016107255,0.049714682462312365,0.04074991251972859,0.4170171916484833,0.2074192315340042,-0.21304330229759216,-0.6339295627461166,0.04124315245333056,0.10151485213754823,None
9,0.449,0.178558349609375,-0.739715576171875,-0.35772705078125,-0.033795910497101095,0.140006678266832,0.0677073428212302,0.49806278944015503,-0.9327988028526306,0.48847994208335876,-0.4353638462274305,-0.005385060285769371,-0.2123542601064761,None
10,0.499,-0.23565673828125,-0.8229522705078125,-1.0820159912109375,-0.4562935577603465,0.08176533386245344,-0.7175911701124351,1.3504042625427246,-1.0544085502624512,-0.16967585682868958,-0.3736326102838656,-0.0580728228811623,-0.22063681947909652,None
11,0.549,-0.055419921875,-0.8475799560546875,-0.817779541015625,-0.28432342054403315,0.07785063661943448,-0.51581694988901,1.3504042625427246,-1.0544085502624512,-0.16967585682868958,-0.31019863809118475,-0.11059921273019478,-0.22890349866903312,None
12,0.599,0.064422607421875,-0.7859954833984375,-0.4463958740234375,-0.0066678967052964805,0.08135244604133751,0.04620305971422267,4.621423721313477,-1.861212134361267,-0.07098256051540375,-0.4938484348084705,-0.20247689658594972,-0.07109050412717148,None
13,0.648,0.330108642578125,-0.64605712890625,0.207916259765625,-0.10728800450534276,0.20997384259758756,-0.06757448226817991,6.145911693572998,-3.6768295764923096,0.5886720418930054,0.3063497547802358,-0.37808606717061166,-0.43739664708346776,None
14,0.698,-0.555572509765625,-1.345458984375,0.3895263671875,-0.9553189057136321,-0.4890995855009018,0.06264504486000394,1.065694808959961,1.77499520778656,0.8292300701141357,0.35661371279057413,-0.29454395327670624,-0.3997463959480071,None
15,0.752,-1.141876220703125,-2.0709075927734375,-0.46905517578125,-1.5032852774031813,-1.2187498568503043,-0.847487054514444,1.065694808959961,1.77499520778656,0.8292300701141357,0.4058653900245451,-0.2086833804348755,-0.3614090567000563,None
16,0.802,-0.3689727783203125,-1.4786529541015625,-0.7635955810546875,-0.8239917847585572,-0.7683693143385116,-1.300675514458371,4.5899810791015625,0.23006409406661987,-2.052298069000244,0.6031341440389384,-0.19741988023397303,-0.4550190064382447,None
17,0.852,0.6711578369140625,-0.57635498046875,0.8721771240234375,0.13433015443914176,-0.06387262879772959,0.2019697840499438,5.411051273345947,-0.44174838066101074,-1.8855798244476318,0.7943745007801903,-0.21902268271910946,-0.5368276824749207,None
18,0.901,1.9855194091796875,0.392547607421875,1.321319580078125,1.3716511253207542,0.6870162687978868,0.5888894212646666,5.411051273345947,-0.44174838066101074,-1.8855798244476318,0.9278215120301605,-0.24051863843887775,-0.6138682838589332,None
19,0.951,2.82171630859375,1.279815673828125,1.4883575439453125,2.18796254108187,1.4014298506071137,0.7244425263086206,4.487857818603516,-1.1649547815322876,-0.50889652967453,0.9875638038976483,-0.29661662198488786,-0.6337537675118797,None
20,1.001,-0.9217376708984375,2.991607666015625,-0.6765899658203125,-1.3860017559471298,2.9702617099020974,-1.562029523041188,3.6395363807678223,-1.7697118520736694,4.071856498718262,0.9997095347819672,-0.3798493837352952,-0.4642640850486923,None
21,1.051,-4.340362548828125,0.3848419189453125,1.8494720458984375,-4.367720820464208,0.0260039097154125,0.916473220548154,6.861271381378174,-1.3976192474365234,9.108837127685547,0.9333481846380042,-0.44351296158786413,-0.027358271636082662,None
22,1.101,-1.5622711181640625,-1.3766021728515625,0.820709228515625,-1.644591186820847,-1.7249277884990246,-0.1130427041625135,-0.2023315280675888,0.28656280040740967,-1.1010328531265259,0.9369319327464499,-0.4306260233282597,-0.08232006865678437,None
23,1.151,-1.923980712890625,-0.1065521240234375,0.6685333251953125,-2.132611219151375,-0.426963373583767,-0.2554850420531808,-0.46531787514686584,-3.6428964138031006,-2.555222272872925,0.9448093353486234,-0.5869861291261266,-0.20863050626075028,Straight
24,1.201,-1.7700958251953125,0.7379608154296875,0.724853515625,-2.1988498805313075,0.5604595332901244,-0.16095868505398692,-2.720416784286499,-0.8031771779060364,-4.6587748527526855,0.9805084814216034,-0.6190166194452038,-0.42875405533599475,None
25,1.25,-0.6829681396484375,0.3477935791015625,0.7907867431640625,-1.2963718182118475,0.37746146298368655,0.0015746399935437916,-4.7067484855651855,2.4667060375213623,-4.344998836517334,0.9992941772053322,-0.5176950416443034,-0.61340367856341,None
26,1.3,0.469573974609375,-0.21905517578125,1.33514404296875,-0.287361388273898,-0.019031400975562884,0.7130191793527298,-5.470088481903076,3.7910382747650146,-3.9649503231048584,0.952004008304451,-0.3472178647558469,-0.756935362883273,None
27,1.35,1.2110748291015625,-0.3303985595703125,1.100830078125,0.3755593762699674,-0.07641779841563301,0.6135850668186714,-3.3886232376098633,1.7522449493408203,-2.609191417694092,0.8867594532552688,-0.26382977429748933,-0.8355154528315951,None
28,1.4,1.148284912109375,-0.7506256103515625,1.181976318359375,0.3069846819647625,-0.4572272044131147,0.7279594704876249,-1.864186406135559,-0.1529855579137802,-0.21227657794952393,0.8398882720953424,-0.27120024214266014,-0.8413002301446125,None
29,1.45,0.86712646484375,-0.669891357421875,0.9163818359375,0.03570381633575581,-0.3227813308991402,0.4825028101303765,-2.020630359649658,-0.5553825497627258,0.36041730642318726,0.7808628344289935,-0.2978206717699587,-0.8314226485079942,None
30,1.5,0.24755859375,-0.823974609375,0.2161407470703125,-0.03150824642356831,0.10487212197193596,-0.027509511254305063,-2.409965753555298,-1.0237712860107422,1.3558813333511353,0.2537305467723138,-0.3462749555530762,-0.2790668401735683,None
31,1.55,-0.6479949951171875,-1.453704833984375,-1.044830322265625,-0.9404972679686008,-0.527114705954057,-1.2812053527014053,-0.13520576059818268,-1.038340449333191,-0.28040608763694763,0.24718574147036504,-0.3944915883610659,-0.2925022728514133,None
32,1.599,-0.09326171875,-1.0417022705078125,-0.310699462890625,-0.0077823275179938756,-0.08692600087138813,-0.025926661145515617,-0.3836062550544739,1.965221643447876,-1.0589345693588257,-0.2858189164676809,-0.30244182874206343,0.08547939123200612,None
33,1.649,0.3621063232421875,-0.67486572265625,0.49237060546875,-0.03559820325967711,0.0663451744034802,-0.048404315991035785,-0.34429505467414856,0.910362720489502,-0.7624819278717041,0.5893917566801191,-0.25875712501305176,-0.3977045265018646,None
34,1.699,0.374359130859375,-0.480255126953125,0.347564697265625,-0.15957352592972185,0.20471252772120585,-0.14815218772426852,0.6862683892250061,-0.614772379398346,-0.22935062646865845,0.5862815515342248,-0.2883219499727112,-0.5339326567890968,None
35,1.749,0.090179443359375,-0.8532562255859375,0.444000244140625,-0.0031660787026826648,0.029956675968749735,-0.015588250099942691,0.059005264192819595,-0.9100476503372192,0.4631253182888031,0.4616039610905752,-0.33157854421776173,-0.09334552206205766,None
36,1.799,-0.742828369140625,-1.9855499267578125,-1.0897064208984375,-0.8639235177393163,-1.1125492973305657,-1.5621531014937104,0.3248113691806793,-1.0515869855880737,-0.5582292079925537,0.47594923655230703,-0.3807022679973996,-0.12109514859869135,None
37,1.849,0.02178955078125,-1.760009765625,-0.5048370361328125,-0.17821282769803262,-1.0171174630824735,-1.1436719721105604,4.283747673034668,1.7964123487472534,-1.5993454456329346,0.6520084993367493,-0.2962223156029211,-0.20000237847928262,None
38,1.898,0.995574951171875,-0.268829345703125,0.642974853515625,0.7528613529161189,0.20908273891456425,-0.20123492408596022,6.908830165863037,0.6111012101173401,-0.8760353922843933,0.870231447486326,-0.26690486947501263,-0.24271359825575609,None
39,1.948,3.170440673828125,1.6046295166015625,2.191497802734375,2.9655709230695164,1.8427993158326539,1.242127731603877,5.386515140533447,0.7752246260643005,0.7766296863555908,0.9699433013060921,-0.22935865895670074,-0.2048697507586087,None
40,1.998,2.6721954345703125,2.983917236328125,0.7277984619140625,2.7980556614011394,3.0805682014220146,-0.2595301532128932,2.9643630981445312,-1.873382568359375,6.650510787963867,0.9952428014348388,-0.31939203943075634,0.125860226830827,None
41,2.048,-2.251312255859375,3.476104736328125,0.262298583984375,-1.8085110602991064,3.4307213956166853,-0.6331719368013548,2.9643630981445312,-1.873382568359375,6.650510787963867,0.9987181869480513,-0.4066251526340968,0.44280119556026865,None
42,2.098,-6.847686767578125,-0.9445037841796875,1.8487701416015625,-6.233167673839625,-0.90162959223665,1.0610340899344806,-2.100222587585449,5.737680912017822,4.061115741729736,0.9985221278065558,-0.1314910468343953,0.6145190937385003,None
43,2.148,-1.429229736328125,-0.772796630859375,3.1227264404296875,-0.6682434424182281,-0.6698302648612837,2.4821815255685773,-2.100222587585449,5.737680912017822,4.061115741729736,0.9873251431860285,0.1543910749932052,0.7609862939098969,None
44,2.198,-1.6400299072265625,0.6818389892578125,0.8177032470703125,-0.9856004537938606,0.9299146493903958,0.10343399998658276,-3.497905969619751,-1.8676719665527344,-3.0280842781066895,0.9446468167517748,0.0615885082684935,0.6544294534327019,Straight
45,2.247,-1.3865966796875,0.5069732666015625,0.6427154541015625,-0.9018509792795988,0.8850010695309612,-0.14602822171994612,-2.2530689239501953,-1.2431390285491943,-4.14710807800293,0.9017767619151096,-0.0005294408401862211,0.48474570040790127,None
46,2.297,-0.0302276611328125,0.263427734375,1.1632537841796875,0.24710552885919534,0.8896958141056138,0.4346423691995306,-5.261423110961914,0.9209908843040466,-4.501101970672607,0.7583589521616493,0.04550438476436889,0.27733318999200784,None
47,2.347,0.8574371337890625,0.2207489013671875,1.43170166015625,0.9265889729114832,1.1169344151862615,0.9934442609410977,-8.11924934387207,3.2177605628967285,-4.236204624176025,0.4393090407855794,0.20494560423717578,0.06915183912242075,None
48,2.397,1.3883209228515625,0.05181884765625,0.419921875,1.316331556296209,1.0353145116515683,0.2539284715004426,-5.752523422241211,1.0727087259292603,-2.8251752853393555,0.1664252104211138,0.25712265512530624,-0.07198936655535348,None
49,2.447,1.5297698974609375,-0.3725433349609375,0.3411712646484375,1.4357197657133407,0.6026379477179139,0.14073165122062734,0.7102879881858826,-0.31842219829559326,-0.4427529275417328,0.201332025145896,0.24170489513598478,-0.09405013174759687,None
50,2.497,0.8759002685546875,-0.603912353515625,0.856689453125,0.8526887175308047,0.34976544408530397,0.5567563234742272,2.0397937297821045,-1.921279788017273,1.4195140600204468,0.3000139607156913,0.14751812180502147,-0.0232115510238828,None
51,2.547,0.0322723388671875,-0.973052978515625,0.219970703125,-0.00006050751136774807,0.0018243801418067473,-0.00041242377488326376,0.7457764744758606,-1.3774175643920898,0.9716655015945435,0.2204984129868943,0.07910485626731863,-0.03233284637855525,None
52,2.596,-0.0316619873046875,-1.0599517822265625,0.225616455078125,-0.002457824264408215,-0.08228084941065872,0.01751392268604332,-0.13553892076015472,0.3238595724105835,0.2708171010017395,0.20819133276889668,0.09523601460718657,0.029204163040279285,None
53,2.646,0.1273956298828125,-0.9354705810546875,0.394744873046875,0.0029016512997872557,-0.02130692732495587,0.008990983246556006,-0.7407941818237305,0.5178338289260864,-0.39423784613609314,0.38877844486809987,0.12097522109820924,-0.12449397858302524,None
54,2.696,0.3375396728515625,-0.7727203369140625,0.452972412109375,-0.01509614409307991,0.03455918959439741,-0.020258764682752117,-0.40872544050216675,0.2861174941062927,-0.20193205773830414,0.5057181881230357,0.135163163252034,-0.3526358169446424,None
55,2.746,0.283050537109375,-0.9197998046875,0.4670867919921875,0.018450219693054548,-0.05995575434486944,0.030446343667066833,-0.025773540139198303,0.0022985744290053844,-0.0022418489679694176,0.45277829730883973,0.13527703642040992,-0.26460031741632045,None
56,2.796,-0.1255950927734375,-1.408660888671875,0.2274017333984375,-0.3982966159678407,-0.5542142912247576,-0.21481415432892126,0.1541445553302765,0.4978169798851013,-0.16820845007896423,0.4596367240959057,0.15989463401356396,-0.2727015231944032,None
57,2.846,0.0858154296875,-1.426849365234375,0.1925201416015625,-0.23120638330842697,-0.6143842278454729,-0.2967625687126359,1.2892820835113525,0.893846333026886,-0.9277560710906982,0.5158933963752447,0.20383759755892084,-0.31702181299592697,None
58,2.896,0.628326416015625,-0.8690948486328125,0.1952972412109375,0.051919204774553473,-0.07181412760076356,0.016137595364260154,4.586479187011719,0.4229762852191925,-1.2611398696899414,0.2192460157111182,0.2244952592837284,-0.5764072112410715,None
59,2.945,2.1363677978515625,0.680572509765625,1.641571044921875,1.5420052548358398,1.3966647995609343,1.2755860726134562,5.028713226318359,1.4757486581802368,-0.44295158982276917,0.455093556089117,0.2957231866051004,-0.5943625430157227,None
60,2.995,3.3039703369140625,1.8944854736328125,1.56243896484375,2.691943994114269,2.486996532441017,1.0386504570382713,5.028713226318359,1.4757486581802368,-0.44295158982276917,0.6623213868194847,0.3653417542151999,-0.6120263427997936,None
61,3.045,0.725250244140625,2.8973541259765625,-0.4348602294921875,0.24529054179711218,3.5152194112621364,-1.0576612999515302,1.3092707395553589,0.0842171460390091,3.160231113433838,0.709914270217152,0.3692582789560585,-0.4799597023435128,None
62,3.095,-5.193359375,1.8968505859375,1.702880859375,-5.186365374926883,2.384364937637693,0.8297938987294307,5.44331169128418,-1.786718726158142,10.152056694030762,0.8731083154060607,0.28487385751125105,0.006994000073117196,None
63,3.145,-5.0318145751953125,-2.7404022216796875,-0.3094329833984375,-4.735564383443583,-2.540607344288604,-1.243412550013974,5.970253944396973,2.160778045654297,5.875402927398682,0.9778760585052785,0.3865738518292418,0.2962501917517294,None
64,3.195,-2.1031951904296875,-0.28839111328125,2.1114959716796875,-1.8025409647903943,-0.019060172468147507,1.1965818331257103,-1.5109965801239014,3.7425973415374756,0.09228678792715073,0.959297766487158,0.5514017675208429,0.3006542256392932,None
65,3.245,-2.1088409423828125,0.5113067626953125,0.5852203369140625,-2.0220452556989477,0.9473281333810284,-0.3105206262434934,-3.3343539237976074,-0.08113054186105728,-4.369470119476318,0.8991341756352434,0.5480131235718229,0.08679568668386471,None
66,3.294,-1.0339813232421875,0.202117919921875,0.69610595703125,-1.190804164472556,0.7767433637630056,-0.10714505962470078,-3.359221935272217,-0.1498691290616989,-4.8875579833984375,0.8133143588959667,0.541729746789644,-0.15682284123036838,Straight
67,3.344,0.120758056640625,-0.02081298828125,1.4635467529296875,-0.3141472484163853,0.712240847380435,0.940584565333911,-6.603239059448242,3.4630420207977295,-5.849205017089844,0.5807618137891306,0.6784463280739533,-0.4349053050570103,None
68,3.394,0.9755706787109375,0.3055419921875,1.530517578125,0.30241718910742676,1.011964059297918,1.311811742505417,-6.388532638549805,1.65864098072052,-5.770635604858398,0.2957471397996034,0.7369707940986754,-0.6731534896035107,None
69,3.444,1.502105712890625,-0.0052032470703125,1.0178680419921875,0.7553194486128469,0.6487739063050421,0.8969376556159387,-2.3477535247802734,-0.04361139237880707,-2.0950353145599365,0.1818326742700801,0.7354951425408793,-0.7467862642777781,None
70,3.494,1.165985107421875,-0.4867401123046875,0.8415985107421875,0.3537530133404536,0.09534485534266268,0.8034394255449202,-2.3477535247802734,-0.04361139237880707,-2.0950353145599365,0.06541545470708744,0.7340159937904844,-0.8122320940814214,None
71,3.544,0.516021728515625,-0.8797607421875,0.580657958984375,-0.2742706046520884,-0.2726038898360025,0.49820442795656666,1.3902952671051025,-1.526331901550293,0.733649492263794,0.13456748281804565,0.6801007350061216,-0.7902923331677134,None
72,3.594,0.298553466796875,-0.9301910400390625,0.2533416748046875,0.002734273605087767,-0.008519066402931541,0.002320205696885791,0.8319981694221497,-1.2188957929611206,0.11578358709812164,0.26278257923558807,0.6341859781580909,-0.29581919319178723,None
73,3.643,0.3636932373046875,-0.5911407470703125,0.3619842529296875,-0.10092108148129902,0.16403539407035872,-0.1004468561351316,0.1845402866601944,-0.5476886630058289,-0.8268672823905945,0.5222182304771316,0.61277773815141,-0.4646143187859865,None
74,3.693,0.6135711669921875,-0.4443511962890625,0.52862548828125,0.12618802719752764,0.30583066751320087,0.08176438428352972,-0.24440202116966248,-0.28713804483413696,-0.5178263783454895,0.5117580512031662,0.6013693577942802,-0.48738313979465986,None
75,3.743,0.6080474853515625,-0.5124053955078125,0.47198486328125,-0.04952184922183345,0.04173237016533371,-0.038440358356038096,-0.4677053987979889,-0.8119165897369385,-0.22417211532592773,0.6775010136917834,0.5684479027408269,-0.657569334573396,None
76,3.793,0.6431884765625,-0.592254638671875,0.3660125732421875,-0.03538678545344609,0.03258452008421997,-0.02013718975782469,0.0406358428299427,-0.6478224396705627,0.08897567540407181,0.5257093656320221,0.5415055851119909,-0.6785752620159461,None
77,3.843,0.558380126953125,-0.8468780517578125,0.3432159423828125,0.03695928536447213,-0.056055017134327145,0.02271752761936513,0.3699146807193756,-0.7894752025604248,0.13923192024230957,0.37559890226557024,0.5079068986733196,-0.5214208415886529,None
78,3.893,0.5172271728515625,-0.9030914306640625,0.3564453125,-0.003083192296521653,-0.11563231144608221,0.026013383837060255,0.24520443379878998,-0.3489129841327667,0.026017485186457634,0.38693294593367755,0.4928024809561677,-0.5203103651480842,None
79,3.942,0.4872589111328125,-0.8473968505859375,0.388275146484375,0.02399215668021043,-0.04172499988211187,0.019118292014049576,0.18757441639900208,-0.4024808704853058,-0.3009182810783386,0.41655268266996776,0.47519311988268154,-0.46326675445260207,None
80,3.992,0.5125579833984375,-0.7254486083984375,0.322784423828125,-0.029784002230994533,0.042154768183983116,-0.01875653547659939,0.2534242868423462,-0.45933830738067627,-0.3076438307762146,0.40652000042221165,0.45486141013574255,-0.542341985629432,None
81,4.042,0.638885498046875,-0.633026123046875,0.4385528564453125,0.0003910729903713328,-0.000387486364426759,0.0002684458757167274,0.01823759265244007,-0.34190061688423157,-0.24668940901756287,0.5694768050339141,0.43957149998951767,-0.6384944250565037,None
82,4.092,0.6054229736328125,-0.7035675048828125,0.3044281005859375,-0.014352641109479314,0.016679333843712563,-0.0072170159733651595,-0.234910249710083,-0.3537982702255249,0.03436889126896858,0.39711191188896605,0.42361433746166144,-0.6197756147422918,None
83,4.142,0.63653564453125,-0.7711334228515625,0.3897247314453125,0.04340384747145287,-0.052581748961185726,0.026574399948901317,-0.5633477568626404,-0.6398769021034241,-0.2515068054199219,0.4510593780174974,0.394421103645155,-0.5931317970597971,None
84,4.192,0.63336181640625,-0.6853485107421875,0.1389007568359375,-0.03794636511923888,0.041061024123798195,-0.00832190810639949,-0.2163003385066986,-0.32610833644866943,-0.14406555891036987,0.19863325442331053,0.37938580347388146,-0.6713081815254889,None
85,4.242,0.720306396484375,-0.635986328125,0.1776885986328125,-0.01681646684449911,0.014847907852364672,-0.004148365809519772,0.03485678508877754,0.20250649750232697,0.21273143589496613,0.2690856244297432,0.38873453694146,-0.7371228633288741,None
86,4.291,0.609039306640625,-0.718780517578125,0.236419677734375,-0.017980995630486163,0.021220944534992348,-0.006979945540380644,0.2883913218975067,0.10360362380743027,0.398240327835083,0.31245020884556285,0.3935020588225073,-0.6270203022711112,None
87,4.341,0.605926513671875,-0.78717041015625,0.3081207275390625,0.023337877254517192,-0.030318670657417113,0.011867583868054976,-0.038357775658369064,0.06301092356443405,0.1926317662000656,0.3644993951435146,0.3963964729732338,-0.5825886364173578,None
88,4.391,0.583526611328125,-0.7806243896484375,0.2751617431640625,0.007326402024233514,-0.009801040770821778,0.0034547619816694963,-0.11564537137746811,0.10331280529499054,0.03129373863339424,0.33244112082864485,0.40113363126370155,-0.5762002093038915,None
89,4.441,0.6259918212890625,-0.6422882080078125,0.3011932373046875,-0.0356587491771827,0.03658705006983909,-0.0171570517978894,-0.15060016512870789,0.32960107922554016,-0.011501393280923367,0.42457329457289417,0.41617452835776025,-0.6616505704662452,None
90,4.491,0.7367095947265625,-0.3923492431640625,0.483306884765625,0.0797039027402815,0.2936322931696186,0.17062037641115413,-0.21608702838420868,0.44849124550819397,0.1235584244132042,0.41476651375180673,0.4364584974703337,-0.657005691986281,None
91,4.541,0.9302978515625,-0.22900390625,0.6222381591796875,0.3314355690403743,0.5036551363581739,0.298858051787684,-0.24049623310565948,-0.12552569806575775,1.4952059984207153,0.4037950796643611,0.4308030115265757,-0.5988622825221257,None
92,4.591,0.0074462890625,-1.6951446533203125,-0.351043701171875,-0.5052634316703467,-0.9436666565789376,-0.7662660063044586,1.7826100587844849,-1.9533239603042603,2.0748355388641357,0.48362528907367003,0.34075158212371703,-0.5127097207328467,None
93,4.64,0.742919921875,-1.802032470703125,-0.4833526611328125,0.21038778864849716,-1.1891991979008196,-1.0671719027030484,5.12730073928833,1.006734848022461,-0.46502867341041565,0.6897595593998513,0.3876242527979647,-0.5325321332265028,None
94,4.69,2.7817230224609375,0.432403564453125,1.096405029296875,2.2296563661742876,0.8705453633024698,0.38700093351116693,5.12730073928833,1.006734848022461,-0.46502867341041565,0.8508084823865205,0.4335149732972687,-0.5520666562866501,None
95,4.74,3.4710693359375,1.75506591796875,0.7867584228515625,2.925940856376639,1.9985777198421848,-0.015449120817790596,5.171238899230957,1.5885857343673706,0.16596899926662445,0.9568857116036058,0.5036503394379687,-0.545128479560861,None
96,4.79,-0.3575592041015625,2.7208099365234375,-0.3808135986328125,-0.7267542116470718,2.8696161792972683,-1.2981748952411918,2.6780388355255127,1.5954915285110474,3.9679934978485107,0.9870978340429679,0.5708933652301558,-0.36919500754550927,None
97,4.84,-4.793701171875,1.165618896484375,2.2537384033203125,-4.69809902154738,0.923155665677014,1.2882997410743926,8.137293815612793,0.17145457863807678,9.477821350097656,0.969881081784499,0.5779107192536351,0.09560215032762023,None
98,4.89,-2.5854034423828125,-1.3084716796875,0.70086669921875,-2.3317242580948436,-1.6350263917139376,-0.20963255476903941,1.966195821762085,2.499225616455078,3.2146718502044678,0.9412903565786808,0.6751201537733277,0.2536791842879691,None
99,4.94,-2.1362762451171875,-0.4998779296875,1.6325836181640625,-1.8690607465599358,-0.8616015944516304,0.7394140554939017,0.8087130784988403,1.7271957397460938,0.2804063558578491,0.9268736572397619,0.7362333179246222,0.2672154985572517,None
100,4.989,-1.9264373779296875,0.9039459228515625,0.8467864990234375,-1.9111434342268574,0.8013988244616507,-0.14782407195287406,-5.64119815826416,-0.680152416229248,-5.10415506362915,0.9947269134370624,0.7127981589838324,0.015293943702830097,Straight
101,5.039,-1.1649169921875,0.5351715087890625,0.739654541015625,-1.412684827268973,0.7462297058949208,-0.20589584755891566,-6.447033882141113,0.5365055203437805,-5.31340217590332,0.9759820594778905,0.7313538777821946,-0.24776783508147301,None
102,5.089,0.075469970703125,0.052093505859375,0.9314117431640625,-0.46552749414179007,0.5520805868485832,0.25514651274387756,-8.340580940246582,5.089975833892822,-6.4249420166015625,0.8040972093699064,0.8794967940943728,-0.5409974648449151,None
103,5.139,1.656341552734375,-0.018524169921875,1.0476837158203125,0.9122193046239117,0.4556017653409645,0.577060004796136,-3.049283742904663,3.1380152702331543,-5.351945877075195,0.7044806679112869,0.9430571613519054,-0.7441222481104633,None
104,5.189,2.2003173828125,-0.37176513671875,1.28619384765625,1.3060384745620972,-0.009961011455627944,1.0228252671439675,-3.049283742904663,3.1380152702331543,-5.351945877075195,0.5885199393340946,0.9834490776040944,-0.8942789082504029,None
105,5.239,1.344970703125,-0.360321044921875,0.7076416015625,0.46757758899388324,0.000704206582591349,0.3916636101589247,1.7945988178253174,-1.0384160280227661,0.7283188700675964,0.6586001008022883,0.9727207682024774,-0.8773931141311168,None
106,5.289,0.6851806640625,-0.550079345703125,0.5997161865234375,0.04110671870741678,-0.03300145219584827,0.03597936409579572,2.6788392066955566,-2.063606023788452,0.5667201280593872,0.7369462944947549,0.9436542563452719,-0.6440739453550832,None
107,5.338,0.3990631103515625,-0.5764312744140625,0.2943878173828125,-0.125752607334495,0.18164479208026663,-0.09276737098246529,1.4893288612365723,-1.8472963571548462,0.07779546082019806,0.4548260912884343,0.9091087154695617,-0.5248157176860575,None
108,5.388,0.46905517578125,-0.4518890380859375,0.3280181884765625,-0.17414285466235835,0.16776970204377817,-0.12178103274810426,-0.02623160369694233,0.17996443808078766,-0.15754808485507965,0.5874354140650938,0.9128201504823389,-0.6431980304436083,None
109,5.438,0.5093536376953125,-0.5006103515625,0.4947509765625,-0.07691238646525389,0.07559215047937573,-0.07470738500192942,-0.3474610149860382,-0.28501710295677185,-0.0838693305850029,0.7029320896081186,0.9069081530422177,-0.5862660241605664,None
110,5.488,0.6983795166015625,-0.4898529052734375,0.6039886474609375,0.11530772771599129,0.09921919052776784,0.04450553336887164,-0.3973920941352844,-0.6162331104278564,0.07874647527933121,0.6886618700169357,0.8934979259217468,-0.5830717888855712,None
111,5.538,0.6177825927734375,-0.75408935546875,0.4291229248046875,0.037763225920872,-0.04609525588483976,0.02623101742714129,-0.18420977890491486,-1.4524155855178833,0.6109368801116943,0.4945870114321019,0.8585599447595259,-0.5800193668525655,None
112,5.588,0.5069580078125,-0.920745849609375,0.2536773681640625,0.03810112314816161,-0.06919991491109956,0.019065469911455496,0.6521783471107483,-0.5030527710914612,0.5621868968009949,0.26561617206476373,0.8453936429142076,-0.4688568846643384,None
113,5.637,0.490325927734375,-0.91009521484375,0.42822265625,0.032797793407352616,-0.060876505456779695,0.16460249403481064,0.6430383324623108,0.2224879264831543,0.25565680861473083,0.2964705370126925,0.8512832384544056,-0.4575281343270224,None
114,5.687,0.53582763671875,-0.72894287109375,0.486358642578125,0.014157397711209163,-0.019259801898276918,0.012850350115248876,0.07695789635181427,0.28971409797668457,-0.03922703117132187,0.5550135861394249,0.8587944020617605,-0.5216702390075408,None
115,5.737,0.6036529541015625,-0.5224151611328125,0.4939727783203125,-0.03935986566821481,0.034062933719639865,-0.03220841058813262,-0.4102106988430023,0.2810628414154053,-0.02881992980837822,0.6870502969374291,0.8659090756127465,-0.6430128197697773,None
116,5.787,0.5853424072265625,-0.4864044189453125,0.3721466064453125,-0.10559080433366086,0.08774323061818268,-0.0671320905840217,-0.6305875182151794,0.007543403655290604,0.4038774371147156,0.6076461432270897,0.8660976750829111,-0.6909332115602234,None
117,5.837,0.4444122314453125,-0.84918212890625,0.135833740234375,-0.014681680039306588,0.0280537290145062,-0.004487427148837597,-0.34009286761283875,0.2306489199399948,0.7955812811851501,0.15795036415121433,0.8718047327619811,-0.4590939114846191,None
118,5.887,0.2380218505859375,-1.36968994140625,0.0178985595703125,-0.21878597797727145,-0.4867855672790916,-0.09075903984407077,-0.7232397198677063,1.389827013015747,0.05143176391720772,0.1221468359061722,0.9037137810353123,-0.45680782856320895,None
119,5.937,0.9836273193359375,-0.8265838623046875,0.0489044189453125,0.5088486697113153,0.0434139564167203,-0.08409569113213292,0.5849391222000122,2.712125301361084,-0.40618187189102173,0.151118416298008,0.9532975851398836,-0.4747786496246223,None
120,5.986,1.7250213623046875,0.1721954345703125,0.7221832275390625,1.3591159440043457,1.0499311589074891,0.4128400151022228,3.7428250312805176,1.566609501838684,2.4021401405334473,0.33239406157638673,0.9740086977859636,-0.3659054183003418,None
121,6.036,2.17999267578125,0.64678955078125,1.5276336669921875,1.9282325857083982,1.4837643438608716,1.0417426783992376,3.7428250312805176,1.566609501838684,2.4021401405334473,0.5020625871748513,0.9887466760160826,-0.2517600900728517,None
122,6.086,2.4370269775390625,1.1049041748046875,1.966156005859375,2.3885214571895097,1.8120292367748148,1.2607331814275575,5.164219856262207,1.4548050165176392,4.119478702545166,0.7062541459585924,0.997004340097074,-0.04850552034955286,None
123,6.136,-0.759368896484375,3.5124053955078125,-1.060089111328125,-0.5317892292284186,4.1041508882151145,-1.8334226531535527,2.6690502166748047,0.7047898769378662,5.562319278717041,0.7941730682745818,0.9991104098480501,0.22757966725595638,None
124,6.186,-6.476226806640625,1.5442047119140625,2.272308349609375,-5.81645038519266,1.7477263384545196,1.5489315313247114,7.577823638916016,-3.5157992839813232,9.818595886230469,0.9626259998669104,0.9763377042527761,0.6597764214479656,None
125,6.236,-1.811920166015625,-0.9535980224609375,2.4178619384765625,-1.3021961329800957,-0.7941830711742023,1.5724222401820938,1.7577824592590332,0.99904865026474,-3.713144063949585,0.9826832418201141,0.9859176502377647,0.5097240330355293,None
126,6.286,-1.7634124755859375,0.6020050048828125,0.509246826171875,-1.4212598949817326,0.694392906824032,-0.42584465981266895,1.7577824592590332,0.99904865026474,-3.713144063949585,0.9951546340608387,0.9930380011337837,0.34215258060420495,None
127,6.335,-2.1342926025390625,0.8997344970703125,0.7997589111328125,-1.9939745835926481,1.2007324592649518,-0.14348606251593599,-4.208263874053955,-1.3492043018341064,-4.168483734130859,0.9526702299350107,0.9828388473342459,0.14031801894641427,Straight
128,6.385,-1.1984100341796875,0.8926239013671875,1.230621337890625,-1.338353775248923,1.5474163535685146,0.48788141444789024,-8.273119926452637,2.635824203491211,-5.623744010925293,0.7501215269440767,0.9985564846157647,-0.1399437410692355,None
129,6.435,0.26300048828125,0.1735382080078125,1.0737762451171875,-0.1832030159554615,0.9570772455942561,0.6413771130817627,-6.8796067237854,2.610652208328247,-6.442280292510986,0.48316448845174,0.9970527091944023,-0.4462035042367115,None
130,6.485,1.300933837890625,0.009521484375,0.65545654296875,0.6095296670905528,0.7089125103945333,0.4743144293573398,-5.016691207885742,1.089171051979065,-6.01824426651001,0.25072677021326256,0.9913986051921739,-0.6914041708000722,None
131,6.535,2.5556488037109375,-0.2952728271484375,0.526702880859375,1.6811783653165149,0.18980434833528403,0.5254434369339179,-5.016691207885742,1.089171051979065,-6.01824426651001,0.0025963696996315414,0.9828050032758521,-0.8744704383944225,None
132,6.585,1.268829345703125,-0.6818084716796875,0.028564453125,0.42170684426298843,-0.15590868777824585,-0.04767782416406682,2.827509641647339,-2.6764044761657715,1.0759261846542358,0.14347499767219518,0.9986539159311367,-0.8471225014401366,None
133,6.635,0.658203125,-0.828460693359375,0.2613525390625,0.054292052536692004,-0.06833579146019952,0.02155773080138282,2.305842161178589,-2.0099105834960938,-0.24718129634857178,0.30085226277100746,0.9988190775466453,-0.603911072463308,None
134,6.684,0.462493896484375,-0.6331329345703125,0.079742431640625,-0.12434565600244774,0.17022350064366765,-0.02143947206429518,0.09371397644281387,-0.5635895729064941,-0.6891869306564331,0.12496171250485416,0.9970536274228474,-0.5868395524868227,None
135,6.734,0.7286224365234375,-0.36785888671875,0.3409576416015625,0.10720780820981968,0.4129849394511762,0.27671763187118986,-0.8640823364257812,0.25209856033325195,-0.8679380416870117,0.08199297417180831,0.9979412892741882,-0.6214146283136178,None
136,6.784,0.82977294921875,-0.408721923828125,0.169525146484375,0.21177880051691544,0.3766699013592356,0.13427017379737516,-0.7445369958877563,-0.011389540508389473,0.08716446161270142,0.04484323153761352,0.9979046045597711,-0.6179941487018346,None
137,6.834,0.7380218505859375,-0.6389617919921875,0.190826416015625,-0.003956709183776885,0.0034256248489809016,-0.001023065417584429,-0.07735444605350494,-0.3449733555316925,0.2328857183456421,0.28616158287433974,0.9966401868633104,-0.7419785597697144,None
138,6.884,0.6121826171875,-0.8165435791015625,0.026336669921875,0.012523415542744165,-0.016704026319513066,0.0005387690734490261,0.1459292471408844,-0.4832974076271057,0.49753761291503906,0.03223708093189228,0.9943701938568289,-0.5996592016447558,None
139,6.934,0.4172821044921875,-0.9214935302734375,0.0327606201171875,0.004989057360143767,-0.011017448460030166,0.0003916885271593312,0.9518289566040039,0.12393952161073685,0.19790615141391754,0.03552920909605249,0.9950077397225693,-0.41229304713204373,None
140,6.984,0.5492401123046875,-0.760009765625,0.3629913330078125,0.0030075393294746178,-0.004161675758368233,0.0019876747634077763,0.5584284067153931,0.1984795331954956,-0.060387976467609406,0.43098041514988844,0.9959491179331638,-0.5462325729752129,None
141,7.033,0.6180267333984375,-0.6391143798828125,0.38092041015625,-0.02094207314737584,0.021656636144923636,-0.012907634349334007,0.07417569309473038,0.30959007143974304,0.20120714604854584,0.511975208485222,0.997221637818646,-0.6389688065458133,None
142,7.083,0.5930938720703125,-0.7484130859375,0.3643035888671875,0.01279929681170211,-0.016151172142848114,0.0078618747942934,-0.47425970435142517,0.033550236374139786,0.3958413302898407,0.4376704318585375,0.9973451952602966,-0.5802945752586104,None
143,7.133,0.0746917724609375,-1.4723052978515625,0.1455535888671875,-0.5212122784819968,-0.7019943403731655,-0.08142524463610665,-3.3291356563568115,2.142136812210083,-0.38601186871528625,0.28264396885841436,0.9994144282830563,-0.5959040509429343,None
144,7.183,1.0393218994140625,-0.81707763671875,-0.634033203125,0.40419538965567514,-0.0863610263800314,-0.8843680827906637,0.8701463341712952,2.2457220554351807,-0.9956270456314087,0.32409664076113387,0.9892866313937595,-0.6351265097583874,None
145,7.233,1.95294189453125,0.487335205078125,0.697357177734375,1.2801665606791155,1.1761567596896607,0.42736048134218596,0.8701463341712952,2.2457220554351807,-0.9956270456314087,0.36493593123740675,0.9666988413213684,-0.6727753338521345,None
146,7.283,2.564300537109375,0.980377197265625,1.513519287109375,1.9706092911014104,1.6094493041799072,1.0117235231615949,5.995166301727295,0.1739819198846817,2.0463075637817383,0.623586647802677,0.9644360486967601,-0.5936912460079646,None
147,7.332,2.4259185791015625,1.557037353515625,1.026153564453125,2.006484773801941,2.0983963860940285,0.2974521984480555,5.170528411865234,0.39719903469085693,4.056334972381592,0.8027237998644606,0.9589968956773978,-0.41943380529962143,None
148,7.382,-1.203155517578125,3.1360626220703125,-0.4159088134765625,-1.316712404473776,3.510259095536591,-1.3362793001198323,5.055778980255127,-1.3594083786010742,6.380383014678955,0.926362667311375,0.9760315897008972,-0.11355688689565088,None
149,7.432,-5.3008270263671875,0.25054931640625,2.7248382568359375,-4.915524598414637,0.16940574143468917,1.8056224175170619,9.48410415649414,-0.46681883931159973,10.186758041381836,0.9961264056157904,0.9808449331610654,0.38530242795254993,None
150,7.482,-1.4524688720703125,-0.4784393310546875,2.508880615234375,-0.9439341065310503,-0.7280039629350736,1.684799377277622,4.1202712059021,3.8791418075561523,2.7589340209960938,0.9570749821478614,0.9249088218990651,0.5085347655392622,None
151,7.532,-1.7687530517578125,0.0756988525390625,1.6614532470703125,-1.389285197065666,0.06189965355938216,0.7363512368234104,-5.5828962326049805,-0.5757778286933899,-2.885223388671875,0.9998887689482162,0.935469273865656,0.3794678546921464,None
152,7.582,-2.2184600830078125,0.752716064453125,0.5786895751953125,-2.037393696758565,1.0025346647310147,-0.37252314061847125,-5.4349365234375,-1.7651485204696655,-4.143008232116699,0.9671996793295642,0.96297868471494,0.18106638624924754,Straight
153,7.632,-1.136810302734375,0.6173858642578125,1.0980224609375,-1.2744420611689495,1.1860857402922966,0.28707366473112483,-7.095021724700928,0.7949849963188171,-6.40281343460083,0.8187403656375387,0.9515053466871386,-0.13763175843457454,None
154,7.681,0.077117919921875,0.6070556640625,1.2332916259765625,-0.38993134621053605,1.3873984218705682,0.8174428994645351,-9.39179515838623,1.3172436952590942,-6.957614898681641,0.47029406092883114,0.9291956754932963,-0.46704926613241105,None
155,7.731,1.7364349365234375,0.257354736328125,0.22979736328125,1.0141042198140715,0.9385406966021947,0.11053285379235346,-6.3259429931640625,1.229541301727295,-6.424318790435791,0.17246025868325351,0.9047334287308194,-0.722330716709366,None
156,7.781,2.8353424072265625,0.1289215087890625,0.3083343505859375,1.931621461446154,0.5526754451501045,0.3693347897342404,-6.3259429931640625,1.229541301727295,-6.424318790435791,-0.1424837739492929,0.8768528825348381,-0.9037209457804086,None
157,7.831,1.4297943115234375,-0.234954833984375,0.435577392578125,0.5602936008010165,0.25881368653286646,0.4482723600621058,2.3453128337860107,0.34142816066741943,1.4838414192199707,-0.02570186880020999,0.8685182827382706,-0.869500710722421,None
158,7.881,0.690826416015625,-0.6247711181640625,0.6062469482421875,-0.16404146150267251,-0.10655609158231572,0.5806716044079269,1.5003490447998047,-1.2057336568832397,0.5778886675834656,0.04929276928409299,0.8968038797053125,-0.8548678775182975,None
159,7.931,0.6674041748046875,-0.3781890869140625,0.123626708984375,-0.18150367699646774,0.1494720200917481,0.09314367593727894,0.1678640991449356,-0.16249863803386688,0.2276126593351364,0.057673936580574105,0.9003689390951275,-0.8489078518011552,None
160,7.981,0.5267181396484375,-0.5202789306640625,0.1358642578125,-0.1730387320857174,0.17092330739380357,-0.044634458428437745,0.1678640991449356,-0.16249863803386688,0.2276126593351364,0.25266447073182485,0.9038745613900165,-0.6997568717341549,None
161,8.03,0.638702392578125,-0.679901123046875,0.110809326171875,-0.04119735405853109,0.04385473988580513,-0.007147383658393888,0.1532398909330368,-0.596100389957428,0.42032352089881897,0.16085625708435095,0.9162217452850467,-0.6798997466366561,None
162,8.08,0.5858306884765625,-0.8218994140625,0.1053924560546875,0.008545182850812072,-0.0119885846137614,0.001537300496198754,0.4232111871242523,-0.368732750415802,0.2956883907318115,0.12718893610588955,0.92345265158018,-0.5772855056257504,None
163,8.13,0.649017333984375,-0.82269287109375,0.23248291015625,0.04435616173062862,-0.05622576799427703,0.01588871209215803,-0.39745256304740906,0.3305931091308594,0.2554972767829895,0.2719383209785043,0.9169841523783583,-0.6046611722537464,None
164,8.18,0.5757904052734375,-0.795928955078125,0.136566162109375,-0.004754447858579258,0.006572187868006063,-0.0011276615432434522,-0.7766760587692261,1.1820101737976074,0.8541458249092102,0.1691096083871837,0.8918202981955882,-0.5805448531320168,None
165,8.23,0.302032470703125,-0.935546875,0.2644195556640625,0.005349798995657018,-0.016571025362318026,0.0046835741535691255,-0.007016364019364119,1.3405029773712158,0.5690479874610901,0.27198165033596716,0.8595190563260156,-0.296682671707468,None
166,8.28,0.5059967041015625,-0.8515777587890625,0.4467010498046875,0.04033875169609985,-0.06788894766163955,0.035611620756410445,-0.2989360988140106,0.279634028673172,-0.003878894029185176,0.4645263131821119,0.8522891783715106,-0.46565795240546265,None
167,8.33,0.4925537109375,-0.75946044921875,0.2387542724609375,-0.033589731027311776,0.05179145268560581,-0.016281862496417443,0.1046648919582367,-0.5185608863830566,-0.07389339804649353,0.2999028500100669,0.8655633986929867,-0.5261434419648118,None
168,8.379,0.5124053955078125,-0.713226318359375,0.2175750732421875,-0.053938835703958965,0.07507843895281396,-0.022903244641397202,-0.19462621212005615,-0.2641051411628723,-0.04457385838031769,0.29178284561107143,0.872100923966342,-0.5663442312117715,None
169,8.429,0.555755615234375,-0.7342071533203125,0.185211181640625,-0.03593343449849251,0.04747155751369936,-0.01197518060355593,-0.37381964921951294,-0.021040037274360657,0.10284462571144104,0.24459763144150104,0.872615213202351,-0.5916890497328675,None
170,8.479,0.5283355712890625,-0.846099853515625,0.156341552734375,0.00506844327480227,-0.00811682829134397,0.001499820066241303,-0.11255849897861481,-0.09977506101131439,0.2748752534389496,0.18170314233710574,0.8750408929539787,-0.5232671280142602,None
171,8.529,0.4738311767578125,-0.9956512451171875,0.113067626953125,-0.04199420488101602,-0.15334106763729072,-0.04325812451137831,0.0157129168510437,0.06641470640897751,0.1741907149553299,0.1824756537144118,0.8734286726353649,-0.5158253816388285,None
172,8.579,0.2861480712890625,-1.1654815673828125,0.10662841796875,-0.25915571088964895,-0.3415983768927473,-0.04783929247425281,0.036639504134655,0.23102709650993347,-0.6956131458282471,0.18427656352536695,0.867745569360281,-0.5453037821787114,None
173,8.629,0.5131683349609375,-0.8549957275390625,0.2545318603515625,0.014534257823629382,-0.02421569589460415,0.007209002252562963,0.1536063402891159,0.4472813606262207,-0.9059703946113586,0.285324489335064,0.856414366876533,-0.4986340771373081,None
174,8.679,0.64495849609375,-0.6428680419921875,0.2830963134765625,-0.03136683428566445,0.0312651673911547,-0.013768072217799243,0.1536063402891159,0.4472813606262207,-0.9059703946113586,0.4030181347689929,0.8446548452817328,-0.6763253303794144,None
175,8.728,0.6218109130859375,-0.5000457763671875,0.391510009765625,-0.07779223429797899,0.06255869328799435,-0.04898022496668958,0.27336469292640686,-0.28387725353240967,-0.1418282389640808,0.6164740962059209,0.8521676422199308,-0.6996031473839165,None
176,8.778,0.576507568359375,-0.5291290283203125,0.3422393798828125,-0.09849029338236237,0.09039616493621783,-0.05846802155187669,0.013129384256899357,-0.48656779527664185,0.33399608731269836,0.543096653455042,0.8646445014529209,-0.6749978617417374,None
177,8.828,0.5029144287109375,-0.66339111328125,0.2392578125,-0.07770243925408093,0.10249677626780007,-0.03696635964392103,-0.045103829354047775,-0.4742048680782318,0.6979641914367676,0.3392679972629534,0.8763120074620177,-0.5806168679650184,None
178,8.878,0.532318115234375,-0.7801055908203125,0.1533660888671875,-0.02403983093629669,0.03523007385822874,-0.006926111928587969,0.003739344421774149,-0.5135504007339478,1.1460151672363281,0.19290402725137695,0.8883917632345657,-0.5563579461706717,None
179,8.928,0.2520599365234375,-1.4470062255859375,-0.2178802490234375,-0.25701804164834063,-0.6052748212576126,-0.3976797348625257,0.32646307349205017,-0.4490363895893097,1.1176613569259644,0.20889418353788217,0.8984743135005788,-0.5090779781717781,None
180,8.978,0.5240020751953125,-1.48529052734375,-0.519775390625,0.00003381542147096184,-0.6630263083246588,-0.7418988177336596,1.0678964853286743,2.6001999378204346,-0.34780192375183105,0.26078850761552463,0.8339746046716698,-0.5239682597738415,None
181,9.028,1.5094451904296875,-0.2877197265625,0.16156005859375,1.0156573413509917,0.4440952398116571,-0.3081424164827889,6.135461807250977,1.2845700979232788,0.7012598514556885,0.5401471695609905,0.7968378901344035,-0.4937878490786957,None
182,9.077,3.208587646484375,1.781585693359375,1.857269287109375,2.745587215330626,2.3481142036406206,1.1755977769302013,6.135461807250977,1.2845700979232788,0.7012598514556885,0.7690701367573257,0.7564151094793276,-0.46300043115374884,None
183,9.127,2.76873779296875,1.708984375,1.053070068359375,2.4748355734524634,1.9705027982854222,0.13370637555564713,8.325508117675781,0.6488919854164124,3.6614105701446533,0.9618430176612668,0.7347989976439783,-0.29390221951628653,None
184,9.177,-1.0588531494140625,2.66632080078125,-0.3416290283203125,-0.9865545409028695,2.6543654689926015,-1.3389404045961317,5.782456874847412,-0.4244399666786194,7.4133710861206055,0.9999281569235478,0.749027017945878,0.072298608511193,None
185,9.227,-4.135467529296875,2.6681060791015625,2.2309417724609375,-3.646064702456287,2.2479681812841883,1.4667631154061627,9.813901901245117,-1.2061659097671509,8.780861854553223,0.8762935480003472,0.7875976997341482,0.48940282684058795,None
186,9.277,-1.6233978271484375,-0.9036712646484375,2.2527313232421875,-0.9548136227996364,-1.2562487221497973,1.5979914526392451,-0.1742170751094818,7.255377769470215,4.41796875,0.8804569428815681,0.5176753878242061,0.6685842043488011,None
187,9.327,-2.0406494140625,-0.2115478515625,1.0832366943359375,-1.5185807858892333,-0.375532519410708,0.24624602760900416,-6.010002613067627,-0.8157368898391724,-3.660574436187744,0.9813427727952059,0.5521314697472629,0.5220686281732667,None
188,9.376,-1.0485076904296875,1.43084716796875,0.6893310546875,-0.6550913566152538,1.455702333869901,-0.22969332421440725,-4.41019344329834,-1.0659544467926025,-2.8985981941223145,0.999634480031968,0.5957637669659466,0.39341633381443375,Straight
189,9.426,-1.209075927734375,1.031707763671875,0.825408935546875,-1.0140987420700098,1.3762312536218935,-0.09289790965415212,-6.637666702270508,0.301820307970047,-4.1622090339660645,0.9362760634136462,0.5835758933682162,0.19497718566436517,None
190,9.476,-0.63372802734375,0.380859375,0.94451904296875,-0.6921920886203996,1.0913380340545542,0.24323306095635966,-8.65975284576416,3.6907169818878174,-5.094632148742676,0.7024875772570351,0.42466280080878205,-0.058464061276649625,None
191,9.526,0.7576904296875,-0.1977081298828125,1.037811279296875,0.4075077801801125,0.6918411039854104,0.7444271070781886,-9.206171989440918,5.243727207183838,-5.985373497009277,0.3132165974866433,0.1754895780789102,-0.3501826495073875,None
192,9.576,1.5281219482421875,-0.644073486328125,0.665679931640625,0.9464400343995941,0.16616988134173638,0.5939036385110708,-4.604454517364502,2.355837821960449,-5.260575771331787,0.0882405345400563,0.05857759878210999,-0.5816819138425934,None
193,9.626,2.1008453369140625,-0.5299835205078125,0.4604949951171875,1.4835358212244878,0.2562746088146305,0.4335299081810162,-1.0814684629440308,-0.5608454942703247,-0.8904668092727661,0.034275312425069336,0.08654502182494418,-0.6173095156895747,None
194,9.676,0.9322357177734375,-0.8397064208984375,-0.015533447265625,0.373141062680321,-0.02102584887818626,-0.14658796890796827,2.489027976989746,-2.217226505279541,1.4404956102371216,0.1580676826647272,0.19623300978096447,-0.5590946550931165,None
195,9.725,0.4154510498046875,-0.962158203125,0.02618408203125,0.019159895983469344,-0.04437310027302466,0.0012075653398329125,3.0485572814941406,-2.19140362739563,0.5486231446266174,0.027203833430952465,0.3022812269888784,-0.39629115382121816,None
196,9.775,0.35125732421875,-0.7588348388671875,0.07000732421875,-0.06734746536068653,0.14549334491104693,-0.013422683365544377,1.434865117073059,0.1969974935054779,0.007268299348652363,0.0918662200830878,0.2928776296509141,-0.41860478957943653,None
197,9.825,0.4293670654296875,-0.5825347900390625,0.42742919921875,-0.08149519470569444,0.1105669017477271,-0.08112738171562295,0.27708005905151367,1.0298712253570557,-0.10720634460449219,0.5915769661995842,0.24327561090473132,-0.5108622601353819,None
198,9.875,0.5764312744140625,-0.4900360107421875,0.59088134765625,-0.02403456068152754,0.020432271389662082,-0.02463706297036483,-0.6000879406929016,0.5810239911079407,0.25723472237586975,0.7697343759776992,0.2149985023786933,-0.60046583509559,None
199,9.925,0.1805572509765625,-1.23309326171875,0.0183868408203125,-0.37577396385060824,-0.7185907759210886,-0.6341334818646991,0.4938265085220337,-0.880617618560791,1.0823880434036255,0.7852602085161395,0.25777742348092936,-0.5563312148271707,None
200,9.975,0.094482421875,-1.998809814453125,-0.083770751953125,-0.4160851264661013,-1.4832597444294775,-0.7719051166520329,0.4938265085220337,-0.880617618560791,1.0823880434036255,0.8003073224197871,0.3000566674653456,-0.5105675483411013,None
201,10.025,1.1724700927734375,-0.8702392578125,0.32684326171875,0.6426436646364904,-0.5582771731359863,-0.4618034359678176,5.326206207275391,-0.051109522581100464,-0.4510233700275421,0.9298915526375588,0.30249340837055405,-0.5298264281369471,None
202,10.074,2.1631927490234375,0.822906494140625,1.14794921875,1.6868259005422166,0.8434774341068929,0.2689432676342105,7.065603733062744,0.06689833849668503,1.2375589609146118,0.9997262738418513,0.2993035095912641,-0.4763668484812208,None
203,10.124,2.545379638671875,1.3541107177734375,0.98126220703125,2.249907023306708,1.2016390678472606,0.03815652390869695,3.6736226081848145,0.2516719102859497,3.9313552379608154,0.9871821731159977,0.2872733920827413,-0.2954726153651668,None
204,10.174,0.99639892578125,2.1646881103515625,-0.3292999267578125,0.8932005624394203,1.8292670370844952,-1.2656987741577526,3.6736226081848145,0.2516719102859497,3.9313552379608154,0.9414253097929046,0.27519778633025305,-0.10319836334182976,None
205,10.224,-3.4170989990234375,2.2569580078125,0.18536376953125,-3.1159547359223607,1.7039076162400533,-0.5914549977387437,5.494644641876221,0.5434520840644836,8.18549633026123,0.8146352834147188,0.2489760053644416,0.30114426310107684,None
206,10.274,-5.02044677734375,-0.22784423828125,-0.315765380859375,-4.4245852880827545,-0.8601626531349892,-0.8108638638428354,5.756359577178955,3.0087716579437256,6.648910999298096,0.616494036540142,0.10101166939352095,0.595861489260995,None
207,10.324,-0.9897918701171875,-1.0305328369140625,4.0055999755859375,-0.3968578987437623,-1.6482148429585988,3.4889780199935183,-0.6451273560523987,-2.439600944519043,-0.07280842959880829,0.6415662976800794,0.22131654453372787,0.5929339713734252,None
208,10.374,-1.4788970947265625,0.68218994140625,0.773712158203125,-1.0357745316399196,0.14408119608091674,0.056717477408406936,-4.60866117477417,-0.7575686573982239,-3.5123724937438965,0.7998057358474349,0.2580880855170789,0.4431225630866429,None
209,10.423,-2.10302734375,0.62542724609375,0.7307891845703125,-1.8233478417193063,0.23974074725455635,-0.14842938936737904,-4.60866117477417,-0.7575686573982239,-3.5123724937438965,0.9157635654381183,0.29448937226537925,0.2796795020306936,Straight
210,10.473,-0.923980712890625,0.356719970703125,0.80523681640625,-0.8730566657559217,0.22520550570400769,-0.18476858101308646,-5.6264567375183105,1.2594528198242188,-4.6502838134765625,0.991291569487049,0.23376532144065332,0.050924047134703325,None
211,10.523,-0.378570556640625,-0.0307159423828125,1.3035430908203125,-0.632070514339834,0.16272101078325688,0.35574568810371554,-6.667901039123535,4.358677864074707,-6.144855499267578,0.9798022537683104,0.018013643706780963,-0.2534999576992089,None
212,10.573,0.99310302734375,-0.20147705078125,0.818511962890625,0.4975624897396119,0.17996053217757824,0.03816271678505667,-5.0664873123168945,2.1982271671295166,-5.243206977844238,0.8984145651045488,-0.09176745007184119,-0.4955405376041381,None
213,10.623,1.7019500732421875,-0.2231903076171875,0.6131744384765625,1.0854765503732802,0.1643401190947238,-0.07223096270881091,-1.1988328695297241,-0.1601790189743042,-2.9159798622131348,0.8704935331355125,-0.08378943531036849,-0.6164735228689074,None
214,10.673,1.445220947265625,-0.26336669921875,0.743438720703125,0.8582255960498202,0.1131114417899794,0.02670957591156209,0.6186302304267883,0.3876872658729553,0.7382705807685852,0.8852985796835222,-0.10308868188660172,-0.5869953512158048,None
215,10.723,0.728912353515625,-0.609588623046875,0.9085693359375,0.19188997761260773,-0.2822110792614611,0.13111778657605733,1.7021186351776123,-0.17128120362758636,1.208783507347107,0.9216228578079118,-0.09456657329871083,-0.5370223759030173,None
216,10.772,0.14801025390625,-0.908172607421875,0.8802337646484375,-0.3768067154367316,-0.6278572247536301,0.07649846311614616,1.259596347808838,-1.082726001739502,0.2880650758743286,0.9442211496249319,-0.04056066261743922,-0.5248169693429816,None
217,10.822,0.1003875732421875,-0.7862701416015625,0.54937744140625,-0.0037031128844100536,0.02900405894828495,-0.02026552307194074,-0.41941219568252563,-0.4819927513599396,-0.4816316068172455,0.5727542744125664,-0.0164714099106768,-0.10409068612659755,None
218,10.872,0.264892578125,-0.6562347412109375,0.434051513671875,-0.05418266842374181,0.13423007032833334,-0.08878342085148361,-0.9798209071159363,0.003490072675049305,-0.6898676156997681,0.5516711234692571,-0.016645889619089374,-0.3190752465487418,None
219,10.922,0.4841156005859375,-0.5945892333984375,0.434661865234375,-0.06515281620853619,0.08002048063788014,-0.05849727747711353,-0.509058952331543,-0.013517939485609531,-0.1550455093383789,0.5901531912548366,-0.015970082541198395,-0.5492684167944737,None
220,10.972,0.3724365234375,-0.9460296630859375,0.3827362060546875,0.02960533044360425,-0.07520078999397817,0.03042406192711078,-0.509058952331543,-0.013517939485609531,-0.1550455093383789,0.3750407274519929,-0.015294268167587572,-0.34283119299389575,None
221,11.022,0.487335205078125,-1.54132080078125,0.564910888671875,0.14309237835465605,-0.6656146227657133,0.22633214445591432,-0.31017249822616577,0.8210549354553223,-0.030062295496463776,0.360619578181035,-0.056317798217155116,-0.34424282672346895,None
222,11.071,0.4938812255859375,-1.4793548583984375,0.335693359375,0.07184597200077936,-0.6269638656224527,0.026960723967464406,-0.42867571115493774,1.3968863487243652,-1.6851385831832886,0.3405467062271713,-0.12585727341675884,-0.42203525358515814,None
223,11.121,2.1296539306640625,1.04296875,0.5788421630859375,1.639195521868575,1.7018076772161295,0.008419672973127956,7.321940898895264,0.7380191683769226,-1.5385313034057617,0.6545561231540173,-0.16237082227807637,-0.4904584087954876,None
224,11.171,2.9873504638671875,2.398590087890625,2.302154541015625,2.431369852832317,2.7905814756089184,1.5691959391096386,7.321940898895264,0.7380191683769226,-1.5385313034057617,0.8818127788113366,-0.19866329900673493,-0.5559806110348706,None
225,11.221,0.6062164306640625,3.3634796142578125,-0.6540069580078125,0.3523623279176897,3.756427718796507,-1.5378337971897198,1.4550191164016724,-0.3698829710483551,6.657588958740234,0.9137592898897711,-0.18050483896417766,-0.2538541027463728,None
226,11.271,-7.8976593017578125,2.4279937744140625,1.1377410888671875,-7.800333567035487,2.4022135096724577,0.14282245937500015,8.88518238067627,1.1666579246520996,7.082857131958008,0.9996644548288228,-0.23754001453062504,0.09732573472232543,None
227,11.321,-2.1101837158203125,-0.9731597900390625,3.2842559814453125,-1.6737574198145546,-1.3807722601802992,2.4821436686486233,8.88518238067627,1.1666579246520996,7.082857131958008,0.8914934343405196,-0.29376713549903005,0.43642629600575783,None
228,11.371,-1.4756622314453125,-0.2384033203125,1.1278076171875,-1.1905785520968137,-0.46488064258985107,0.19644554030053374,-4.632542133331299,-1.7228814363479614,-3.2505834102630615,0.9716844228512963,-0.2104364815377922,0.2850836793484987,None
229,11.42,-0.742706298828125,0.77874755859375,0.1162261962890625,-0.5388458969544164,0.7000376834888601,-0.8596045739312983,-3.1610608100891113,-0.7545182704925537,-1.6758841276168823,0.9967628217794167,-0.17341435864207955,0.2038604018737086,None
230,11.47,-2.4796295166015625,-0.12933349609375,0.8423309326171875,-2.358422954351482,-0.052414636142113585,-0.14731165854957207,-3.1610608100891113,-0.7545182704925537,-1.6758841276168823,0.9969931160043856,-0.13614545397663502,0.12120656225008063,Straight
231,11.52,-0.77508544921875,0.1986541748046875,0.812347412109375,-0.8898793653739814,0.5050766518353424,-0.13260106393794013,-4.72014856338501,1.895121693611145,-4.731057167053223,0.9512367905455994,-0.22926808828548556,-0.11479391615523135,None
232,11.57,0.18798828125,-0.247833251953125,1.0860443115234375,-0.1779787990855216,0.1992958695742056,0.26986807761749276,-3.752068042755127,1.6459320783615112,-5.192484378814697,0.8770168232063967,-0.30850624564229007,-0.3659670803355216,None
233,11.62,1.2954864501953125,-0.105987548828125,1.412078857421875,0.7337330606433449,0.4477874962480761,0.797451873977667,-4.643701553344727,2.324887990951538,-4.436638355255127,0.7429269473489785,-0.4167496142550013,-0.5617533895519676,None
234,11.67,1.704833984375,-0.2796783447265625,1.2122955322265625,1.097904027576066,0.3152308297957076,0.6853049235727884,-2.249988317489624,0.6059359908103943,-1.1137661933898926,0.6630853442450816,-0.4440945861436043,-0.6069299567989339,None
235,11.72,0.902984619140625,-0.657012939453125,0.6490478515625,0.32789653707294664,-0.08771442715026967,0.061533680028336146,1.5242042541503906,-1.6086840629577637,0.7896035313606262,0.7181521547565823,-0.37066904320210514,-0.5750880820676784,None
236,11.769,0.4093017578125,-0.8220672607421875,0.62408447265625,-0.11894114073046624,-0.3034120892429055,-0.04819244440693171,2.2507872581481934,-1.9235786199569702,1.1236393451690674,0.791758589212059,-0.27976597720143964,-0.5282428985429662,None
237,11.819,0.093505859375,-0.9247894287109375,0.427825927734375,0.002123448590190799,-0.021001280794010424,0.00971560893795137,1.5963407754898071,-1.7165635824203491,0.2766838073730469,0.41986709560899105,-0.1964363873733136,-0.0913824107848092,None
238,11.869,0.1676177978515625,-0.69390869140625,0.364349365234375,-0.041519947294969495,0.17188540038106825,-0.09025155225391707,0.762642502784729,-0.337502121925354,-0.40468862652778625,0.4648812115693753,-0.17986288266036674,-0.209137745146532,None
239,11.919,0.4158477783203125,-0.525482177734375,0.6408233642578125,-0.03264660931432728,0.04125358425005732,-0.050308577087799566,-0.6984733939170837,0.4546892046928406,-0.7440605759620667,0.7732636376814469,-0.20217817630609394,-0.4484943876346398,None
240,11.969,0.6401824951171875,-0.2369232177734375,0.739288330078125,0.16738891697284042,0.3774986426176078,0.10766185031411746,-1.695349931716919,0.37345319986343384,-0.5475658774375916,0.7168017252171422,-0.22042891443719922,-0.4727935781443471,None
241,12.019,0.554534912109375,-0.38702392578125,0.6909637451171875,0.10835076246140313,0.29604975217998875,0.11275093387947188,-1.9350746870040894,0.09922751784324646,0.599228024482727,0.6460902997322062,-0.22526552276872452,-0.4461841496479719,None
242,12.069,-0.14056396484375,-1.6387176513671875,-0.020599365234375,-0.5339399571578878,-0.880259139146256,-0.5402107718744511,-2.0360546112060547,-1.0068000555038452,1.1639244556427002,0.5651773094038841,-0.17595473635731135,-0.3933759923141377,None
243,12.118,-0.080230712890625,-2.2715301513671875,-0.1091766357421875,-0.4194666378971036,-1.4454669167461656,-0.5592194332542166,-2.0360546112060547,-1.0068000555038452,1.1639244556427002,0.4784119937445851,-0.12619815440783053,-0.3392359250064786,None
244,12.168,1.4393310546875,-0.50628662109375,0.1219635009765625,1.0562667755686628,0.18088537974780217,-0.49533415763116573,4.660770893096924,0.8846685290336609,-0.9401360750198364,0.6682723445812518,-0.16994018993131302,-0.3830642791188373,None
245,12.218,2.4726715087890625,1.3240203857421875,1.494659423828125,2.046625153709898,1.8392302105346903,0.750990586400445,4.660770893096924,0.8846685290336609,-0.9401360750198364,0.8220047983453108,-0.21334977536745572,-0.4260463550791646,None
246,12.268,3.2855072021484375,2.11688232421875,1.687286376953125,2.9218382614860365,2.3843920920275203,0.7949952665388248,6.291991710662842,1.5509072542190552,1.358292818069458,0.9578787327081831,-0.28839267468430385,-0.36366894066240113,None
247,12.318,0.344757080078125,3.909454345703125,-0.50982666015625,0.2490668283680011,4.0972041342174315,-1.4873712333806561,2.030445098876953,0.03471536934375763,5.527332305908203,0.9820510492119426,-0.2900542589326921,-0.09569025171012391,None
248,12.368,-8.2943115234375,1.870697021484375,1.286773681640625,-7.7998097332906315,1.7882626106760833,0.4215150223622376,5.694733619689941,-2.5519018173217773,12.261968612670898,0.9954923420923355,-0.1659176069328507,0.4945017901468682,None
249,12.418,-0.563232421875,-0.60455322265625,4.852813720703125,0.24333764453987594,-0.7448750646022048,4.278571168608283,2.8935718536376953,5.901484966278076,8.421302795410156,0.9714179513452017,-0.44552688013382574,0.8065700664148759,None
250,12.467,-3.164886474609375,0.3808135986328125,0.6008758544921875,-2.3711983121039477,0.15416950017494602,0.036348128571679905,2.842289447784424,-0.20976601541042328,-0.4295724034309387,0.9280037516601938,-0.43611270158693066,0.7936881625054271,None
251,12.517,-1.873016357421875,1.3685455322265625,0.91986083984375,-1.2754861878783248,1.2551425713226945,0.12607405175548014,-4.797494888305664,-2.5676193237304688,-5.528613567352295,0.9899486471412206,-0.31731178060995324,0.5975301695435502,None
252,12.567,-0.77886962890625,0.5324554443359375,0.715240478515625,-0.42537700913539733,0.6891204545485498,-0.20698457121064517,-6.203476905822754,1.4901845455169678,-5.58230447769165,0.9858758425280791,-0.38702471489452545,0.35349261977085267,Straight
253,12.617,0.28717041015625,0.034759521484375,0.719696044921875,0.31818257031114533,0.4851865618388026,-0.17257842363591014,-5.984311580657959,1.379120111465454,-6.605700492858887,0.8927038526081963,-0.4496367840239335,0.031012160154895326,None
254,12.667,1.2950897216796875,-0.0301666259765625,0.9371795654296875,1.0436469221027924,0.5404933694081396,0.1554355611620083,-3.261608362197876,1.59170401096344,-5.703755855560303,0.8076934500161446,-0.519224977723694,-0.25144279957689514,None
255,12.717,2.1531982421875,0.0843353271484375,0.7990875244140625,1.6396126173877787,0.6960442685839304,0.19738828312573542,-3.261608362197876,1.59170401096344,-5.703755855560303,0.7012498251997067,-0.5855262375558665,-0.5135856247997214,None
256,12.767,1.2564544677734375,-0.1085968017578125,0.8964996337890625,0.7911778869732811,0.4839537325431944,0.23892715287269495,1.2042933702468872,0.2822798788547516,1.108228087425232,0.7428809523340549,-0.5969090967955015,-0.4652765808001564,None
257,12.816,0.734954833984375,-0.4573211669921875,0.5949859619140625,0.2961299705358304,0.06951104316139556,-0.13294299173736168,2.138998508453369,-1.8977036476135254,0.5931314826011658,0.8100947478788671,-0.5182110229585286,-0.4388248634485446,None
258,12.866,0.45361328125,-0.5322418212890625,0.1528778076171875,-0.1800719385773052,0.21128529633729098,-0.06068826535946001,1.7693078517913818,-1.6708089113235474,0.7103787660598755,0.2760710397961955,-0.44503865350951133,-0.6336852198273052,None
259,12.916,0.3364715576171875,-0.635498046875,0.297882080078125,-0.0958252929790388,0.1809864315446469,-0.08483521697595536,1.3595410585403442,-0.2673203945159912,0.2947578728199005,0.42442496402635776,-0.43302983479354906,-0.4322968505962263,None
260,12.966,0.5169830322265625,-0.5731964111328125,0.6821136474609375,0.015106152873541445,-0.016748697874755303,0.01993124027938742,1.3595410585403442,-0.2673203945159912,0.2947578728199005,0.7655827199293362,-0.4209436562400211,-0.501876879353021,None
261,13.016,0.679229736328125,-0.4924468994140625,0.76312255859375,0.18868924387509195,0.09580370737802735,0.12021412897669015,-0.8436433672904968,0.16561080515384674,0.2611495852470398,0.7377723843281347,-0.42844030764405794,-0.49054049245303305,None
262,13.066,0.547454833984375,-0.6575164794921875,0.5104827880859375,-0.002029312586395604,0.0024372905028253733,-0.0018922641333929402,0.060995977371931076,-0.3988717496395111,0.8961179852485657,0.613252557301139,-0.4103358705999124,-0.5494841465707706,None
263,13.115,0.3876953125,-0.8923187255859375,0.5263824462890625,-0.12052204940849898,-0.23928051140714934,-0.03509435988991505,0.9995887279510498,-0.9411789774894714,0.972661018371582,0.6519484494476735,-0.3669827610528296,-0.508217361908499,None
264,13.165,0.327056884765625,-1.014007568359375,0.53411865234375,-0.1574117718405882,-0.3566368622159215,-0.0430761808543898,0.20790845155715942,0.002751844236627221,0.5471592545509338,0.6597955487938646,-0.3671107496712474,-0.4844686566062132,None
265,13.215,0.405975341796875,-0.91650390625,0.4715423583984375,-0.07671810545880792,-0.23871999522536147,-0.08308905608560546,-0.6949121952056885,0.4213901162147522,0.04056233912706375,0.6332931500714796,-0.38662619279543303,-0.4826934472556829,None
266,13.265,0.4994049072265625,-0.7752685546875,0.4474334716796875,0.01218485184347301,-0.018915578003091293,0.010916814158885013,-0.7921695113182068,0.5735860466957092,-0.26024436950683594,0.49985919893254654,-0.41291267741696513,-0.4872200553830895,None
267,13.315,0.595703125,-0.6504364013671875,0.461639404296875,-0.0026866182149013484,0.0029334650268082463,-0.0020819914824188324,-0.7137612700462341,0.20237042009830475,-0.22984598577022552,0.5787798387638015,-0.42210703406046035,-0.5983897432149013,None
268,13.365,0.5101470947265625,-0.6176910400390625,0.342864990234375,-0.07528266600650735,0.0911529806660909,-0.05059676084007536,-0.395736426115036,0.29348886013031006,0.19147461652755737,0.48532197490940004,-0.43536416694752766,-0.5854297607330698,None
269,13.415,0.4864044189453125,-0.7378082275390625,0.3896026611328125,-0.01723196942089056,0.026138514207996955,-0.013802549650958451,-0.13920529186725616,0.003525226376950741,0.10396847873926163,0.46694972303072263,-0.43552284021721105,-0.5036363883662031,None
270,13.464,0.388458251953125,-0.8718109130859375,0.2569427490234375,-0.004551135875568768,0.010214044632360197,-0.0030103141255674593,-0.38578924536705017,0.12463567405939102,-0.018882878124713898,0.28270073039347815,-0.4411240597392901,-0.39300938782869377,None
271,13.514,0.411773681640625,-0.905975341796875,0.1970367431640625,0.005877909437372819,-0.012932446266010977,0.0028126230106277073,-0.570473313331604,0.24708861112594604,-0.08945424854755402,0.21251778404797797,-0.4521775492503292,-0.4058957722032522,None
272,13.564,0.373992919921875,-0.8906097412109375,0.20166015625,-0.005012668993703062,0.011936942111606008,-0.002702873660579197,-0.31680697202682495,0.3252217769622803,-0.19698204100131989,0.22083884852399374,-0.46662084791973435,-0.37900558891557806,None
273,13.614,0.436981201171875,-0.8166656494140625,0.2679290771484375,-0.016224846179462682,0.030322298776835788,-0.009948043650575444,-0.2880522906780243,0.32763299345970154,-0.12623490393161774,0.3117290964238498,-0.48104646259887374,-0.4532060473513377,None
274,13.664,0.4219512939453125,-0.7633514404296875,0.31341552734375,-0.03332118845328791,0.06028131106037771,-0.02475019747696633,0.009532785043120384,0.09074535220861435,0.1656736582517624,0.37981120330760326,-0.4850192976438075,-0.4552724823986004,None
275,13.714,0.417449951171875,-0.7308502197265625,0.3713531494140625,-0.03632421118462431,0.06359458816835839,-0.032313119657877365,0.11012384295463562,-0.016891365870833397,0.5812509059906006,0.4529892210299946,-0.48428054686561334,-0.4537741623564993,None
276,13.764,0.386749267578125,-0.81072998046875,0.3117828369140625,-0.020002341040066984,0.041930260559489896,-0.016125141421593325,0.11012384295463562,-0.016891365870833397,0.5812509059906006,0.35894258716021454,-0.4835414506522553,-0.406751608618192,None
277,13.813,0.265655517578125,-0.925262451171875,0.2838134765625,0.000955634485982293,-0.003328418378000797,0.0010209535576835016,0.4767164885997772,0.08745048940181732,0.9633524417877197,0.293252596340748,-0.48736418057739117,-0.2646998830921427,None
278,13.863,0.35308837890625,-0.8185577392578125,0.394744873046875,-0.009071322656274416,0.021029866201203284,-0.010141534879767267,0.40656909346580505,0.29713794589042664,0.7114089131355286,0.43437338439850953,-0.5002829419924469,-0.3621597015625244,None
279,13.913,0.419281005859375,-0.7466888427734375,0.4101409912109375,-0.022298320693545592,0.0397106166074187,-0.021812233856969676,0.05320915952324867,0.40102440118789673,0.741939902305603,0.48143394034944403,-0.5175428014874653,-0.4415793265529206,None
280,13.963,0.24896240234375,-1.0468292236328125,0.42333984375,-0.1661324226027171,-0.25512863411737785,-0.02488606231029805,0.2574451267719269,0.3258255124092102,0.5862224698066711,0.49267604959972877,-0.5314132562358299,-0.4150948249464671,None
281,14.013,-0.156829833984375,-2.1932373046875,0.4239349365234375,-0.5450835574747093,-1.3972011371510926,-0.040376883453008605,0.2574451267719269,0.3258255124092102,0.5862224698066711,0.5038365260274176,-0.5451426740168529,-0.38825372349033427,None
282,14.063,1.1599273681640625,-0.92974853515625,-0.3419342041015625,0.7153453150721237,-0.27808316639225605,-0.9564901781366738,4.5612969398498535,1.4939558506011963,-1.2394341230392456,0.6860888838472428,-0.606186671124534,-0.44458205309193877,None
283,14.113,1.8822021484375,0.7023773193359375,0.9773101806640625,1.4267200699154252,1.143340455791904,0.20394895301418403,5.929695129394531,1.4609990119934082,-0.244120791554451,0.8687061073918597,-0.6626165989283164,-0.4554820785220748,None
284,14.162,2.7294921875,1.4200592041015625,0.8107452392578125,2.2631779437968715,1.614600327639586,-0.052217551001502605,5.929695129394531,1.4609990119934082,-0.244120791554451,0.9755190108806983,-0.7155121810131944,-0.46631424370312863,None
285,14.212,1.5759124755859375,1.5316314697265625,0.635101318359375,1.376118953967438,1.573811992888296,-0.3438283789044687,3.5733137130737305,1.7114887237548828,5.679450035095215,0.9990729851355973,-0.772603322846883,-0.1997935216184994,None
286,14.262,-2.35028076171875,2.359710693359375,-0.709228515625,-2.267550114081319,2.2249854230202444,-1.6966517994671118,3.5733137130737305,1.7114887237548828,5.679450035095215,0.9908198696555054,-0.8240401546084882,0.0827306476374308,None
287,14.312,-4.35931396484375,0.138275146484375,0.9552459716796875,-3.957317808197582,-0.26082918148198564,0.1311617372471695,6.308106422424316,0.8577455878257751,6.617411136627197,0.9000076617298678,-0.8475719771795597,0.4019961566461682,None
288,14.362,-1.2037200927734375,-0.379302978515625,2.313873291015625,-0.7918718991372014,-0.9136756582051387,1.575749382311932,3.512347459793091,-1.7780911922454834,0.2157091200351715,0.8100103236133291,-0.7971067849296999,0.4118481936362361,None
289,14.412,-2.56695556640625,0.0510711669921875,1.3003997802734375,-2.145303243993693,-0.6008128923685592,0.6701169134942019,3.512347459793091,-1.7780911922454834,0.2157091200351715,0.6950952236888579,-0.7403453928830805,0.4216523224125571,None
290,14.462,-2.2923583984375,1.0369110107421875,0.5705413818359375,-2.043120123992981,0.5079161407348461,-0.24065816824889497,-4.487676620483398,-2.789555311203003,-3.6674630641937256,0.8376334234052443,-0.6396987371716888,0.24923827444451915,Straight
291,14.511,-0.5102691650390625,0.261505126953125,1.09344482421875,-0.5606978408988188,0.03958238893592678,0.11968548690691616,-7.075685024261475,2.872746467590332,-6.046874046325684,0.9749998638540694,-0.7431351458423396,-0.050428675859756265,None
292,14.561,0.662109375,0.052032470703125,0.9954681396484375,0.3358340569369271,0.13362762722775295,0.0537215456781901,-6.210048675537109,2.4984874725341797,-5.638209819793701,0.996267551133481,-0.8207187729135452,-0.3262753180630729,None
293,14.611,1.51397705078125,-0.233245849609375,1.1799468994140625,1.0497977258263829,-0.0880955320426624,0.3061798025314171,-1.5638068914413452,-0.31531986594200134,-3.0069456100463867,0.9864812112478847,-0.8116095239976688,-0.46417932495486725,None
294,14.661,1.6965789794921875,-0.2705230712890625,1.0701904296875,1.1731862956762367,-0.03839967948725509,0.25032530083619886,-2.225724697113037,-1.003466010093689,-1.3623970746994019,0.962179567010382,-0.7812892210768266,-0.5233926838159509,None
295,14.711,1.0762176513671875,-0.5103607177734375,0.2860107421875,0.49603937631756545,-0.20281980382256853,-0.4681853565870224,-2.225724697113037,-1.003466010093689,-1.3623970746994019,0.9259739817243694,-0.7490025444149744,-0.580178275049622,None
296,14.761,0.3727874755859375,-1.0346221923828125,0.000946044921875,0.03380774400672437,-0.09382890927002374,0.00008579592028196636,1.4785795211791992,-2.221168279647827,1.5605911016464233,0.0009143864623676437,-0.6709557185109883,-0.33897973157921313,None
297,14.81,-0.1911468505859375,-1.0692901611328125,-0.24432373046875,-0.5010835646805363,-0.12465502371846104,-0.35204415758641505,2.2525808811187744,-0.35805508494377136,0.6141148209571838,0.11329961878283842,-0.6575740608619408,-0.30993671409459883,None
298,14.86,0.2450103759765625,-0.7703704833984375,0.46527099609375,-0.017671660816245105,0.055563874922449186,-0.033558216454440015,0.9040920734405518,0.7792111039161682,0.17090091109275818,0.5169844379981271,-0.6864201138529649,-0.2626820367928076,None
299,14.91,0.243682861328125,-0.8477783203125,0.367218017578125,-0.011351953311785234,0.039493708578759334,-0.01710683208524899,-0.10068453103303909,0.1958664357662201,0.21492721140384674,0.3974683854735103,-0.6935088379849282,-0.25503481463991023,None
300,14.96,0.06121826171875,-1.7769317626953125,0.448974609375,-0.2182261841960329,-0.8695528818172817,0.13500905683155262,-1.512742280960083,0.993587851524353,-0.5066349506378174,0.3269923175452691,-0.7284299137738699,-0.2794444459147829,None
301,15.01,0.4552764892578125,-1.6655120849609375,-0.80560302734375,0.06291710449900079,-0.806593252639446,-1.134711752046047,0.6558334827423096,2.5523831844329834,-2.3995962142944336,0.3577999907817182,-0.8097034561055256,-0.3923593847588117,None
302,15.06,1.626068115234375,0.503265380859375,0.86328125,1.2380363484370862,1.1896427230229982,0.24820605775065008,7.295108795166016,3.0655179023742676,0.09400399029254913,0.6673659873114801,-0.8898072044879503,-0.38803176679728885,None
303,15.11,2.476531982421875,1.536773681640625,1.61273193359375,2.0928364059198006,1.9594148801398972,0.7916642616544391,7.295108795166016,3.0655179023742676,0.09400399029254913,0.8891213404493657,-0.9490471622720655,-0.38369557650207425,None
304,15.159,1.9331817626953125,1.245452880859375,1.419219970703125,1.7925803482969755,1.522007946667989,0.4685630726348574,3.8455698490142822,0.7256980538368225,5.054520606994629,0.9601952067114459,-0.959854576042575,-0.14060141439833695,None
305,15.209,0.113311767578125,3.8701934814453125,-0.7048187255859375,0.40661949505739314,3.990298497733469,-1.6532623781364562,3.142655611038208,-1.6382720470428467,8.77507495880127,0.9920771043869893,-0.9336852169403085,0.29330772747926814,None
306,15.259,-8.559310913085938,2.404296875,0.9390411376953125,-7.887657210511741,2.3812082489803554,0.19853575677840263,3.142655611038208,-1.6382720470428467,8.77507495880127,0.9995142718960232,-0.9012544832980965,0.6716537025741965,None
307,15.309,-1.3044281005859375,-1.248809814453125,4.0408935546875,-0.6302913429314325,-1.336902813656846,3.307559213837186,1.7676864862442017,0.7522923946380615,0.06713349372148514,0.9928619551954543,-0.9169111855354265,0.674136757654505,None
308,15.359,-1.992584228515625,0.7048797607421875,0.640869140625,-1.5023972451981582,0.8595673967024374,-0.21691198336127127,-5.959416389465332,-1.733361840248108,-4.549821376800537,0.9841258564766042,-0.8789245183534957,0.49018698331746674,None
309,15.409,-2.0167999267578125,1.1392364501953125,0.6233367919921875,-1.699425541373972,1.4770745342921177,-0.2627438637249033,-3.7168266773223877,-2.5634453296661377,-3.7868964672088623,0.9343882267603015,-0.8107489416167522,0.31737438538384033,Straight
310,15.459,-0.8577117919921875,0.6358489990234375,0.7230682373046875,-0.7412540272686258,1.213881892561473,-0.08459231207459095,-5.1383795738220215,-0.23060737550258636,-4.124736309051514,0.8131938088248579,-0.8039453886021072,0.11645776472356174,None
311,15.508,0.0628509521484375,0.129852294921875,1.3646392822265625,-0.06286618326976565,0.9467182900577318,0.8016782286420826,-6.92394495010376,1.5081994533538818,-4.855465888977051,0.5674632343831058,-0.8464646422891022,-0.12571713541820315,None
312,15.558,0.691162109375,0.0058135986328125,0.8444366455078125,0.3340951222238845,0.919590966236683,0.6507511036060848,-7.891034126281738,1.4830368757247925,-4.781506538391113,0.2073546108860592,-0.883584169110464,-0.3570669871511155,None
313,15.608,1.1640472412109375,-0.139892578125,0.7212371826171875,0.6401880812386168,0.7109707708870504,0.7612764361203712,-5.1178507804870605,0.4974782168865204,-3.724984884262085,-0.047005192973753024,-0.8949574056002187,-0.5238591599723207,None
314,15.658,1.511260986328125,-0.37359619140625,0.2839508056640625,0.9352737733233107,0.4344467619593795,0.4076654611059211,-2.0980358123779297,-0.8881096243858337,-1.2487211227416992,-0.15134055708076097,-0.8742701253103882,-0.5759872130048143,None
315,15.708,0.8975830078125,-0.73101806640625,-0.0016326904296875,0.33930489375269013,0.09437805719279213,0.08231244945045528,1.0113990306854248,-1.5123157501220703,0.43004751205444336,-0.10118091738125777,-0.8350999495563862,-0.5582781140598099,None
316,15.758,0.6636199951171875,-0.821563720703125,0.1119842529296875,0.03875762325749421,-0.04798206413809758,0.006540254238503199,1.091611385345459,-1.1329268217086792,0.3751254081726074,0.1350573618649596,-0.80261607984376,-0.6248623718596933,None
317,15.808,0.465545654296875,-0.835723876953125,-0.0816802978515625,-0.019334913064918247,0.03470905239480726,0.0033923234885776254,0.4823828935623169,-0.46058544516563416,-0.27574262022972107,-0.09727250187838217,-0.788667602941727,-0.48488056736179325,None
318,15.857,0.49945068359375,-0.776702880859375,-0.04229736328125,-0.0408489753921395,0.06352482419072114,0.003459408523371968,0.0818578451871872,0.13175909221172333,-0.23671720921993256,-0.05437701384235445,-0.7927008642393497,-0.5402996589858895,None
319,15.907,0.566802978515625,-0.7495574951171875,0.1523590087890625,-0.02857458240904054,0.03778789672318128,-0.007680967139242045,-0.3073578178882599,-0.07998937368392944,-0.2941061854362488,0.19919193746403377,-0.790256411480707,-0.5953775609246655,None
320,15.957,0.584686279296875,-0.6667633056640625,0.011077880859375,-0.0745765819999823,0.08504548524592159,-0.0014129808062006317,-0.2608600854873657,-0.1538715809583664,-0.11948858201503754,0.01661212025279082,-0.7855186270413186,-0.6592628612968573,None
321,16.007,0.5439453125,-0.8363189697265625,-0.0350189208984375,-0.0009455940389000439,0.001453856139981835,0.00006087686039246698,0.05223923549056053,-0.13695119321346283,0.21996672451496124,-0.04183602519839427,-0.7812627138929782,-0.5448909065389,None
322,16.057,0.561553955078125,-0.9800872802734375,-0.0697479248046875,0.02572320211558632,-0.1368957732104047,-0.026004507055609576,-0.19967369735240936,-0.1852092742919922,0.21535278856754303,-0.051808718582347604,-0.775448894494501,-0.5358307529625387,None
323,16.107,0.4569549560546875,-1.041259765625,-0.1780548095703125,-0.07138747764574394,-0.19347254234295563,-0.13210813622799,-0.04622209072113037,-0.1805945485830307,0.17688582837581635,-0.05411657895137957,-0.7697158954689558,-0.5283424337004314,None
324,16.157,0.464874267578125,-0.924560546875,-0.131378173828125,0.019233375687980725,-0.03825210725681505,-0.0054355466642656836,0.4555704593658447,0.11387357115745544,0.08898793160915375,-0.14068472390032502,-0.7733381675964313,-0.4456408918901443,None
325,16.206,0.5569305419921875,-0.7415313720703125,0.0774383544921875,-0.04152623021749391,0.05529056165592339,-0.005774010749712871,0.44786593317985535,0.47591832280158997,0.2971850633621216,0.103865487970232,-0.7882042666912935,-0.5984567722096814,None
326,16.256,0.5799102783203125,-0.563323974609375,0.2179718017578125,-0.11265060413379802,0.109428627901896,-0.04234216234840965,0.5321525931358337,0.24480602145195007,0.5720357894897461,0.36086582370665693,-0.7956778820777602,-0.6925608824541105,None
327,16.306,0.5713348388671875,-0.4633941650390625,0.3556671142578125,-0.12788555452608052,0.10372449871544842,-0.07961125952643777,0.5040572881698608,-0.36103516817092896,1.000994324684143,0.6088608379387193,-0.784614526316976,-0.699220393393268,None
328,16.356,0.2205047607421875,-1.0391998291015625,0.158538818359375,0.015212392080640708,-0.07169330583710698,0.010937426732950117,-1.0170713663101196,-1.1483148336410522,1.4575600624084473,0.15081361740283716,-0.747744333037631,-0.2052923686615468,None
329,16.406,-0.71337890625,-2.745086669921875,-1.606842041015625,-0.8468637101944387,-1.7590402772010802,-1.7063122301087543,-1.0170713663101196,-1.1483148336410522,1.4575600624084473,0.10036839995544203,-0.7084098272643864,-0.13348480394443873,None
330,16.456,0.7994537353515625,-1.359771728515625,-0.1872406005859375,0.5424287243698993,-0.4309353162405406,-0.45407587366996116,3.5841615200042725,3.6240296363830566,-2.5211620330810547,0.2761113008485313,-0.8240051842650573,-0.25702501098166325,None
331,16.506,1.857574462890625,0.9004058837890625,1.2272491455078125,1.5820458802721133,1.6823785498091741,0.668140256508869,6.819504261016846,0.9247970581054688,-0.3839399516582489,0.5816217938646835,-0.8493137738954141,-0.2755285826185117,None
332,16.555,3.2110443115234375,1.986175537109375,2.096343994140625,2.9171136932425243,2.533032375671512,1.312410074887972,6.819504261016846,0.9247970581054688,-0.3839399516582489,0.82016318600681,-0.87280674890043,-0.2939306182809133,None
333,16.605,1.6775665283203125,2.3372802734375,0.3409881591796875,1.6262085049295645,2.700511758017814,-0.5892941861558436,4.7370195388793945,0.7347309589385986,4.939117908477783,0.9315116557526449,-0.8901436822900799,-0.05135802339074797,None
334,16.655,-3.0978240966796875,3.92340087890625,0.254058837890625,-2.752250817381346,4.0084291362701405,-0.6804727581962331,5.630281925201416,-2.8016817569732666,8.08460521697998,0.9958863971448715,-0.8177991224121277,0.3455732792983415,None
335,16.705,-5.889007568359375,0.4210052490234375,1.159088134765625,-5.18131367780239,0.14111246061949761,0.510374496657265,9.961261749267578,-0.2965738773345947,8.667583465576172,0.9181826238534972,-0.8091755545185324,0.7076938905569857,None
336,16.755,-2.2963104248046875,-2.0712432861328125,3.196197509765625,-1.4156286403126535,-2.277286111609427,2.7696462836115563,0.8532531261444092,8.316027641296387,5.821414470672607,0.9004511578333194,-0.9775599650736995,0.8806817844920342,None
337,16.805,-2.3966064453125,1.068359375,1.1244049072265625,-1.5538026932106686,0.8677111010358745,0.6249831359767579,-1.3593394756317139,-2.9545061588287354,-1.4965612888336182,0.9279121018150217,-0.9359064587803654,0.8428037521018313,None
338,16.854,-1.9136810302734375,1.2395782470703125,0.9907989501953125,-1.277486217266199,1.2508305967186382,0.21935255249157282,-7.932174205780029,1.6072791814804077,-6.25830602645874,0.9998936406585437,-0.9611635057905298,0.6361948130072387,Straight
339,16.904,0.0198211669921875,0.6542205810546875,1.43011474609375,0.4483224157649521,1.0561694489193783,0.6209029150986298,-8.9286470413208,3.165102958679199,-4.934455871582031,0.8956003788809606,-0.992645691091005,0.4285012487727646,None
340,16.954,0.8989410400390625,0.086181640625,0.614654541015625,1.1265657322673093,0.8082967219761646,-0.038596412885857356,-7.488173961639404,1.6388307809829712,-4.263914585113525,0.6708617864487381,-0.9992234475831908,0.22762469222824677,None
341,17.004,1.4184112548828125,-0.605560302734375,0.089141845703125,1.4902526201656598,0.24192212835894245,-0.436797644373877,-3.5989632606506348,0.01641865447163582,-3.154686689376831,0.527302001129693,-0.9992554571025166,0.07184136528284725,None
342,17.054,1.7248077392578125,-0.6652069091796875,0.2976531982421875,1.7587865893987458,0.26295576062422776,-0.07296722230364294,-3.5102922916412354,-0.011079548858106136,-0.7583582997322083,0.37083455816468996,-0.9992339304966072,0.03397885014093323,None
343,17.104,1.04278564453125,-0.826690673828125,-0.5749664306640625,1.1286715973012313,0.13017297118753735,-0.8525192507976962,-1.9517990350723267,-0.0841822549700737,1.0401300191879272,0.2785821882969418,-0.999060355628907,0.08588595276998126,None
344,17.154,0.353851318359375,-0.954681396484375,-0.5547332763671875,0.4581837519475968,-0.029555685127453768,-0.919777330541351,1.8703029155731201,-0.2724027633666992,0.3706150949001312,0.36704722195460465,-0.9983774037084883,0.10433243358822179,None
345,17.203,0.36968994140625,-0.9020233154296875,-0.179962158203125,-0.003239330212898628,0.007903789232933,0.0015768804907927425,0.8711447715759277,-0.5819800496101379,-0.1363338679075241,-0.19565352866312913,-0.9962979799364625,-0.37292927161914863,None
346,17.253,0.280181884765625,-0.862701416015625,-0.3899993896484375,-0.0035904204819414143,0.011055178804487809,0.004997688546886814,-0.03347646817564964,0.41098833084106445,-0.02900262363255024,-0.41193085841367433,-0.9978540782894292,-0.2837723052475664,None
347,17.303,0.3852386474609375,-0.8159332275390625,-0.1957855224609375,-0.03200118136576846,0.06777831707417648,0.016263601937029165,-0.03347646817564964,0.41098833084106445,-0.02900262363255024,-0.23332962226531836,-0.9989888191266535,-0.41723982882670596,None
348,17.353,0.3457794189453125,-0.9048919677734375,-0.213226318359375,-0.0028249726160023414,0.007392848993724388,0.0017420311255466336,0.4610227346420288,-0.022719958797097206,0.06955324858427048,-0.2293558511705684,-0.9989371008647072,-0.34860439156131484,None
349,17.403,0.3537750244140625,-0.92645263671875,-0.0826416015625,-0.0017282333414193052,0.00452583202750112,0.00040371411589940065,0.1173149049282074,0.2575913369655609,0.1819671392440796,-0.08884939895292888,-0.9994479045203795,-0.3555032577554818,None
350,17.453,0.2547454833984375,-0.933258056640625,-0.1544647216796875,-0.0052902555286696296,0.01938080914312612,0.003207742241193412,0.21393652260303497,-0.24021314084529877,0.13162513077259064,-0.1632897974539326,-0.9989767753974995,-0.26003573892710713,None
351,17.503,0.285736083984375,-0.90789794921875,-0.11053466796875,-0.012465695062996385,0.03960850455240239,0.004822252218111028,0.10644228756427765,-0.0692744106054306,-0.03242451697587967,-0.12085550049480012,-0.9988141325234573,-0.2982017790473714,None
352,17.552,0.368255615234375,-0.8062591552734375,-0.140350341796875,-0.0420932211084008,0.09215893387531249,0.016042655496604996,0.17306818068027496,-0.09019940346479416,0.2335115522146225,-0.1714969697806698,-0.9985844029257277,-0.4103488363427758,None
353,17.602,0.01983642578125,-1.1986541748046875,-1.2570648193359375,-0.37177594053817026,-0.2792566331221866,-1.2203508588593222,2.6487505435943604,-0.17373956739902496,0.4090658128261566,-0.039900827947455524,-0.9980846690569086,-0.39161236631942026,None
354,17.652,-0.043853759765625,-1.5267486572265625,-1.18792724609375,-0.4561649582090084,-0.6466898468639566,-1.42350306391327,6.029228210449219,3.5501792430877686,-0.45212432742118835,0.25857813482409003,-0.9933249802802157,-0.4123111984433834,None
355,17.702,1.3301239013671875,-0.0631561279296875,1.004669189453125,0.9169370764116267,0.6116134941699574,0.39314437002659897,9.494390487670898,0.5730448961257935,-0.019226690754294395,0.6715283779307661,-0.9896127055499437,-0.41318682495556075,None
356,17.752,3.1210784912109375,1.8274078369140625,2.167327880859375,2.7070164215955974,2.1479008068451466,1.3153672839239214,9.494390487670898,0.5730448961257935,-0.019226690754294395,0.9359646928657568,-0.9850880627268642,-0.41406206961534003,None
357,17.802,3.3074188232421875,2.5084686279296875,0.323822021484375,2.984922638545104,2.5194772916887125,-0.6226847244916194,6.9635396003723145,-0.6199149489402771,1.9709352254867554,0.9999323687005754,-0.9899468877100995,-0.32249618469708335,None
358,17.852,-1.125091552734375,4.008270263671875,-0.4553070068359375,-1.077057794717958,3.8504543357589873,-1.4416066017805034,3.405869483947754,1.2011746168136597,7.528352737426758,0.9874393835304496,-0.9796724529865052,0.04803375801641705,None
359,17.901,-4.7186737060546875,2.913787841796875,0.650482177734375,-4.080205699368056,2.465256794780414,0.025039531043315688,9.269498825073242,1.6179195642471313,12.889077186584473,0.8126342831669844,-0.9602582877889594,0.6384680066866308,None
360,17.951,-2.2860260009765625,-1.084747314453125,1.6324462890625,-1.6013718853559078,-1.5982402987797961,1.1151710267398287,3.1918139457702637,0.4908786416053772,1.2324587106704712,0.7096966452460383,-0.9531192295894021,0.6846541156206547,None
361,18.001,-2.5049896240234375,-0.5677337646484375,1.3898468017578125,-1.776748472918091,-1.121703113722778,0.9863833137903002,3.1918139457702637,0.4908786416053772,1.2324587106704712,0.588721939416432,-0.9454060368023673,0.7282411511053467,None
362,18.051,-2.317962646484375,1.5100555419921875,0.873779296875,-1.7667910889745553,0.9576240154717759,0.24845592237303316,-4.3546600341796875,-2.4469850063323975,-4.639686107635498,0.749436017336579,-0.9781123887377015,0.5511715575098198,None
363,18.101,-0.98687744140625,0.774322509765625,0.941253662109375,-0.6844829411551907,0.33370725514006716,0.09602247266522823,-4.860959053039551,-1.7303798198699951,-5.531278133392334,0.8867461052442152,-0.9924340090685986,0.30239450025105924,Straight
364,18.151,0.1996917724609375,0.1304779052734375,0.939239501953125,0.2409082180904996,-0.012252010525415136,-0.04966361551881315,-6.7439374923706055,1.8899823427200317,-5.319512844085693,0.9897441612234259,-0.9764207792959265,0.041216445629562094,None
365,18.201,0.901641845703125,-0.2285308837890625,0.928497314453125,0.7021759397198603,-0.11162857433455493,-0.04440925988712363,-5.258522987365723,1.8826380968093872,-4.840819358825684,0.9928582930957731,-0.9518072047665322,-0.19946590598326477,None
366,18.25,1.549774169921875,-0.2522430419921875,1.0510711669921875,1.1811918328176982,0.028601161531907393,0.16491452501417936,-3.746511936187744,0.6265360713005066,-3.5334136486053467,0.9532716302233873,-0.9417339410669724,-0.36858233710417676,None
367,18.3,1.4254608154296875,-0.4324951171875,0.71539306640625,0.995298866035704,-0.05158633743011187,-0.10306230732973176,-2.573521614074707,-0.4731648862361908,-1.3437727689743042,0.9066228741251136,-0.9494273175300912,-0.43016194939398344,None
368,18.35,0.8472442626953125,-0.5686798095703125,0.5267333984375,0.4008472458686061,-0.12401800706000576,-0.24980094385297602,-1.689205527305603,-0.7758147716522217,-0.3612537980079651,0.8677961072307715,-0.9608898244635691,-0.4463970168267064,None
369,18.4,0.6575164794921875,-0.6236572265625,0.115142822265625,-0.062238356636875936,0.059033350640792626,-0.01089904247248541,-0.8966194987297058,-1.7694483995437622,0.4758507013320923,0.18155678624721266,-0.9816004572981941,-0.7197548361290634,None
370,18.45,0.24371337890625,-0.879364013671875,-0.5771942138671875,0.017997727022361687,-0.06493920663027186,-0.04262459429469545,-0.660051167011261,-1.4220012426376343,0.4611678719520569,-0.5487305849454162,-0.9926852677459544,-0.2257156518838883,None
371,18.5,0.3809814453125,-0.9130706787109375,-0.4947662353515625,0.16229753607238842,-0.10878238229323767,0.05777126028559043,-0.4219094216823578,0.012464925646781921,0.144241064786911,-0.5662429817117373,-0.9926098298457393,-0.21868390924011158,None
372,18.549,0.4368438720703125,-0.9082794189453125,-0.23809814453125,0.015022431265619307,-0.03123442038094193,-0.008187852089445252,0.39365115761756897,0.038894135504961014,-0.06156269833445549,-0.25357410019901605,-0.9923719636357574,-0.4218214408046932,None
373,18.599,0.5075225830078125,-0.8530120849609375,-0.01837158203125,-0.0037080333249014386,0.006232229546975776,0.00013422543288463956,0.48092639446258545,-0.02888863906264305,-0.05621560290455818,-0.021532312328053395,-0.992548997485495,-0.5112306163327139,None
374,18.649,0.4253082275390625,-0.868560791015625,0.0408935546875,-0.014075433687949945,0.028744729178254547,-0.0013533585291753344,0.5239271521568298,0.20133177936077118,0.24830834567546844,0.04702987483050653,-0.9912721528010612,-0.43938366122701245,None
375,18.699,0.3755950927734375,-0.898284912109375,0.1504058837890625,-0.005644209385976262,0.013498866810986221,-0.0022602060498704557,0.22491540014743805,0.08497800678014755,0.22852745652198792,0.1651379003245107,-0.9907030682082824,-0.38123930215941376,None
376,18.749,0.27777099609375,-0.9467926025390625,-0.0303955078125,-0.0036112405512239154,0.012309045537403307,0.0003951654129883096,0.1798027902841568,-0.16128183901309967,0.18871106207370758,-0.03208712904959163,-0.9917678993327428,-0.2813822366449739,None
377,18.799,0.3487396240234375,-0.9207000732421875,0.04522705078125,-0.005105043024469902,0.013477715644431787,-0.0006620585221850175,0.2543145716190338,-0.1268996298313141,0.12577736377716064,0.04906329851893185,-0.9925603960069583,-0.3538446670479074,None
378,18.849,0.3852386474609375,-0.9052886962890625,0.024810791015625,-0.006200170352388956,0.01457004423641961,-0.0003993138587942563,-0.09216667711734772,-0.023615846410393715,0.08664035052061081,0.027396209045574185,-0.9927034693583874,-0.39143881781332646,None
379,18.898,0.4453582763671875,-0.8704833984375,0.0172882080078125,-0.010042037723303143,0.01962785377185039,-0.0003898183691545473,0.04084410145878792,0.03425464406609535,0.24848997592926025,0.019856552672106446,-0.9924954901590528,-0.45540031409049064,None
380,18.948,0.4002838134765625,-0.9390716552734375,-0.0576171875,0.008788765709519308,-0.020618572334881513,-0.0012650623001239023,0.07004246860742569,0.10304994881153107,0.3554800748825073,-0.06124031390593731,-0.9918522646931134,-0.3914950477670432,None
381,18.998,0.1317138671875,-1.3271484375,-0.286956787109375,-0.24565454310310542,-0.4034222173011591,-0.22120761957165003,-0.19559399783611298,0.6324770450592041,0.30605632066726685,-0.07099857362985466,-0.987328346724751,-0.3773684102906054,None
382,19.048,0.255706787109375,-1.297943115234375,-0.8680572509765625,-0.15810187196906406,-0.38847198941981775,-0.9083643841083799,2.306973695755005,1.6272236108779907,-0.7936164140701294,0.04427584840032453,-0.9711652469539492,-0.41380865907843906,None
383,19.098,1.07818603515625,-0.537261962890625,0.1666107177734375,0.670215461085601,0.33045415453056703,-0.11734130327934,5.439337253570557,3.061558723449707,0.12807275354862213,0.31101155766856015,-0.9234563204345841,-0.407970574070649,None
384,19.148,2.6013641357421875,0.908233642578125,1.2800140380859375,2.1992483760983093,1.6699371151086084,0.7719680403839283,5.439337253570557,3.061558723449707,0.12807275354862213,0.5548844393433088,-0.8541503990098257,-0.4021157596438781,None
385,19.198,3.4220123291015625,1.8410491943359375,2.070404052734375,3.1216797763051805,2.275854269293436,1.2214370895832682,10.184915542602539,-0.5502466559410095,2.17570424079895,0.8900568332023726,-0.8681324790199301,-0.30033255279638216,None
386,19.247,0.2634735107421875,3.507965087890625,-0.69281005859375,0.18067164601589597,3.781767584216098,-1.651025088847288,3.900020122528076,0.7064889669418335,4.442890167236328,0.9615168507327617,-0.8500618728123563,-0.08280186472629153,None
387,19.297,-6.4888458251953125,1.842071533203125,1.7770538330078125,-6.060123320083684,1.7854798673015286,0.8753918137559803,6.8201398849487305,0.9807527661323547,10.519500732421875,0.9980361576898727,-0.8232230772980268,0.4287225051116289,None
388,19.347,-2.8070526123046875,-1.78912353515625,0.8551177978515625,-2.3875724117865422,-2.1002372689896616,0.002331420149919383,5.74269437789917,1.9552768468856812,-0.20411264896392822,0.9394357139987494,-0.7638781962774404,0.4194802005181455,None
389,19.397,-2.5774383544921875,-0.0693511962890625,1.203765869140625,-2.3295702039158748,-0.07944640651914864,0.23502469284001548,-6.787912845611572,-2.9397714138031006,-3.6478703022003174,0.9999457062486956,-0.8501603950474914,0.24786815057631265,None
390,19.447,-1.8704376220703125,1.4770660400390625,0.2171783447265625,-1.8595284359146738,1.8928589341574948,-0.6922155517000849,-8.785244941711426,2.023376226425171,-4.791394233703613,0.9094480148967647,-0.7926363887875303,0.01090918615563883,Straight
391,19.497,-0.5133056640625,0.3054046630859375,0.4029083251953125,-0.7534103454966216,0.9604185550672705,-0.31354582076581294,-6.235750675201416,4.211535453796387,-5.067661762237549,0.7380441499810811,-0.6476866693054358,-0.2401046814341216,None
392,19.547,0.53717041015625,-0.5105743408203125,0.8863677978515625,0.07450207696182504,0.23897593422511898,0.41296268736118064,-5.336923122406006,1.9174461364746094,-4.770580291748047,0.5339969721350395,-0.5717784284924615,-0.46266833319442496,None
393,19.596,1.1879119873046875,-0.92132568359375,0.1076202392578125,0.5944675384120465,-0.18643114770187352,-0.2206383587937436,-2.864720582962036,0.6406524181365967,-3.086578130722046,0.40783800988358176,-0.5452097786314971,-0.593444448892641,None
394,19.646,1.2552032470703125,-0.8025054931640625,0.1057891845703125,0.6033318626869818,-0.08992882576370353,-0.15362976481226082,-1.4188389778137207,-0.38765719532966614,-1.4943598508834839,0.3420926313999795,-0.5613549925610972,-0.6518713843833307,None
395,19.696,1.1309967041015625,-0.82720947265625,-0.1123046875,0.4861371515693822,-0.09670670561673245,-0.33707538144297067,-1.0128659009933472,-1.2267273664474487,0.18420179188251495,0.29408658004995486,-0.6110280027404417,-0.6448595525321803,None
396,19.746,0.4365234375,-1.00994873046875,-0.317840576171875,-0.18190327143084517,-0.27109577843508603,-0.5855058913550419,0.9813050627708435,-0.15872520208358765,0.6820086240768433,0.3406093733732703,-0.6172911091097475,-0.6184267089308452,None
397,19.796,0.30438232421875,-1.0605316162109375,0.19171142578125,-0.31408613569830823,-0.3253969495116915,-0.08591023386513025,0.2704932689666748,0.6445385217666626,-0.0010626012226566672,0.3532937895017167,-0.5916209287260416,-0.6184684599170582,None
398,19.846,0.35064697265625,-0.910919189453125,-0.2526092529296875,0.002864110630250827,-0.007440455892285036,-0.0020633312220977307,-0.232371985912323,0.6120138764381409,-0.2408754676580429,-0.26722757450776063,-0.5666770255256948,-0.3477828620259992,None
399,19.896,0.38421630859375,-0.8903350830078125,0.058074951171875,-0.011296715478322228,0.02617760331392449,-0.0017075178360007603,0.005255748517811298,0.251049280166626,-0.19060802459716797,0.06508987331796807,-0.5562901762748157,-0.39551302407207223,None
400,19.945,0.369110107421875,-0.8848724365234375,-0.017974853515625,-0.01580487571920336,0.03788923306458547,0.0007696628192320684,-0.08867740631103516,-0.37502020597457886,-0.08296731859445572,-0.020309307156566425,-0.5717733367551441,-0.38491498314107836,None
401,19.995,0.3415679931640625,-0.9219207763671875,-0.0709991455078125,-0.0049476150229050275,0.013354029576453041,0.001028423171837184,-0.08867740631103516,-0.37502020597457886,-0.08296731859445572,-0.07678483400166528,-0.5870554673991497,-0.3465156081869675,None
402,20.045,0.3346405029296875,-0.8989715576171875,-0.0505828857421875,-0.013736877146372228,0.036902472166272404,0.0020764100013778986,-0.40529531240463257,-0.10566544532775879,-0.1314176768064499,-0.056178642619763505,-0.5913243099806074,-0.34837738007605973,None
403,20.095,0.31243896484375,-0.9028472900390625,-0.1198883056640625,-0.01204717543129602,0.03481243031326198,0.004622712315085278,-0.1637902706861496,-0.2783852815628052,-0.10072688013315201,-0.13163365576208727,-0.6024916308812542,-0.324486140275046,None
404,20.145,0.28741455078125,-0.9282073974609375,-0.234893798828125,-0.00009328361916804973,0.0003012601315360852,0.00007623741948764584,0.06232675909996033,-0.12149873375892639,-0.010061688721179962,-0.24532821392901624,-0.6073290437180209,-0.28750783440041805,None
405,20.195,0.2978515625,-0.930328369140625,-0.214385986328125,0.00002796117343173421,-0.00008733569385921403,-0.00002012574214765861,0.2216077595949173,-0.19084744155406952,-0.10030103474855423,-0.22455600532913603,-0.6148822194211979,-0.29782360132656827,None
406,20.244,0.328887939453125,-0.9151458740234375,-0.1197357177734375,-0.006782626757329546,0.018872972059517545,0.0024692990704632822,0.3039100766181946,-0.3660445511341095,0.0901527926325798,-0.12973214835609018,-0.6292119160589469,-0.33567056621045455,None
407,20.294,0.2940521240234375,-0.971405029296875,-0.067413330078125,0.004964226202356814,-0.01639938604610236,-0.001138080606196773,-0.15860828757286072,0.01823253370821476,0.0488668754696846,-0.06923124661689424,-0.628503107635683,-0.2890878978210807,None
408,20.344,0.3249664306640625,-0.9351043701171875,-0.1639404296875,0.0011153379061796809,-0.003209431042137778,-0.0005626703509411246,-0.010732272639870644,-0.012517656199634075,0.05067116767168045,-0.1726840362810017,-0.6289898005791935,-0.3238510927578828,None
409,20.394,0.3430328369140625,-0.914520263671875,-0.0951385498046875,-0.006515086395917635,0.017369120059291365,0.0018069286810435403,0.296965092420578,-0.5025265216827393,0.2102815955877304,-0.1034726925979232,-0.6483227513619115,-0.34954792330998014,None
410,20.444,0.23785400390625,-0.9498748779296875,-0.1255035400390625,-0.0030810263403626414,0.012304142334739199,0.0016257019277318707,0.7234807014465332,-1.0268534421920776,0.19626857340335846,-0.1309879847171859,-0.6865418004910944,-0.24093503024661264,None
411,20.494,0.1756744384765625,-1.021636962890625,-0.1524200439453125,0.00801039082135055,-0.04658453114329042,-0.006950038557671401,0.8690195679664612,-0.8091303706169128,0.3087056279182434,-0.14755881999480508,-0.7153875554528855,-0.16766404765521195,None
412,20.544,-0.07855224609375,-1.535430908203125,-0.8374481201171875,-0.29206998018641417,-0.559823418520438,-0.7864559314704906,1.917600393295288,-0.21965166926383972,-0.9342925548553467,-0.05219586773495889,-0.723018094843673,-0.21351773409266417,None
413,20.593,0.3367156982421875,-1.287567138671875,-0.833892822265625,0.04475473017307574,-0.3556005681921647,-1.0488279395276356,5.57763671875,0.2788012623786926,-1.622043490409851,0.22472639357172036,-0.7133179563526317,-0.29196096806911176,None
414,20.643,1.88299560546875,0.8107757568359375,0.187744140625,1.517962740588002,1.451453418920655,-0.4877431952019674,11.703551292419434,1.8673776388168335,-1.5478321313858032,0.7255544892955615,-0.6448692870400307,-0.36503286488074793,None
415,20.693,3.09759521484375,1.2432861328125,1.682861328125,2.661675712137409,1.3988987081456845,0.7964308945553767,11.703551292419434,1.8673776388168335,-1.5478321313858032,0.9849383979536422,-0.5708028926548788,-0.435919502706341,None
416,20.743,2.73895263671875,2.31793212890625,0.66058349609375,2.4796352966649025,2.3003813553663783,-0.30504919157560884,3.839047431945801,2.996708869934082,3.774888277053833,0.9998348680810178,-0.44183929439912206,-0.2593173400538473,None
417,20.793,-1.910919189453125,3.9232635498046875,0.5466156005859375,-1.8825217273313979,3.647237109525246,-0.41411484465440407,5.231998443603516,1.0494540929794312,5.814331531524658,0.9611180538180687,-0.394179795858053,0.028397462121727106,None
418,20.843,-7.6654052734375,-2.215301513671875,-0.705718994140625,-7.193449860526816,-2.6800569781640866,-1.4548921693470889,5.509616851806641,1.2201557159423828,9.262123107910156,0.8497664757203224,-0.3374130492183487,0.4719554129106834,None
419,20.893,-2.9947509765625,-0.0114898681640625,2.00787353515625,-2.4152496994092916,-0.5220842558936839,1.3726793593353337,2.4364750385284424,7.652230262756348,2.5321834087371826,0.7794067741205551,0.038434613813191645,0.5795012771532086,None
420,20.942,-0.9344024658203125,1.5037384033203125,0.7095794677734375,-0.5105825548021417,1.249662897923717,-0.1598009556213008,-7.854945659637451,1.1274404525756836,-3.6091601848602295,0.9598496314205853,0.09467410169679896,0.4238199110181708,None
421,20.992,-0.9796600341796875,0.5665283203125,0.577056884765625,-0.7525867057677195,0.6020217473991449,-0.3961737765668032,-6.415683746337891,-0.4278237819671631,-4.171742916107178,0.9993356432512556,0.07335895918923138,0.227073328411968,Straight
422,21.042,-0.2413177490234375,0.314605712890625,0.5149078369140625,-0.23823326047914645,0.6954896703974958,-0.4097098661634442,-7.086010932922363,2.6795740127563477,-4.519739151000977,0.9246221015474732,0.2059198572279375,0.0030844885442910634,None
423,21.092,0.8937530517578125,-0.710968017578125,0.296844482421875,0.7163165071018944,-0.1500565183196424,-0.5117929905041388,-4.313950061798096,2.3721354007720947,-3.6293108463287354,0.8216756216438782,0.3202661167210629,-0.17743654465591802,None
424,21.142,1.7381744384765625,-0.9946746826171875,0.70904541015625,1.4090861933045333,-0.4098871023262559,-0.032388614438704555,-1.2275292873382568,-2.4724175930023193,-3.139136552810669,0.7851685634273157,0.2010106377243445,-0.3290882451720291,None
425,21.192,1.493408203125,-1.0324554443359375,0.1593475341796875,1.1317968713401982,-0.4578541489499597,-0.5748667370419895,0.07565774023532867,-2.0625,-0.693154513835907,0.7875056141096556,0.0991015715027803,-0.36161133178480176,None
426,21.242,0.811553955078125,-0.900970458984375,0.0994873046875,0.42238617003010526,-0.3198131602364719,-0.6152186692576315,-0.3731570541858673,-0.6758072376251221,-0.5946476459503174,0.7758702396407796,0.06542737574758256,-0.38916778504801974,None
427,21.291,0.5745849609375,-0.5880889892578125,-0.19940185546875,-0.10457372523712716,0.10703144105492135,0.036290881702750466,-1.4690742492675781,0.5226829051971436,-0.541100025177002,-0.321111002776822,0.0914802138569502,-0.6791586861746272,None
428,21.341,0.4573516845703125,-0.688232421875,-0.1865234375,-0.08253345703467296,0.12419807980822373,0.03365992656029898,-0.8438063263893127,0.21773871779441833,-0.08094464987516403,-0.2615816106219563,0.10231586420263748,-0.5398851416049855,None
429,21.391,0.3095245361328125,-0.587310791015625,-0.038604736328125,-0.15592340528048887,0.2958586082941097,0.019447188334218928,-0.4333900511264801,-0.3768934905529022,-0.31462186574935913,-0.06558981745525241,0.08355302999035934,-0.46544794141330137,None
430,21.441,0.534149169921875,-0.675506591796875,-0.1279144287109375,-0.07937516875590445,0.10038104098794187,0.019008228294599444,-0.4333900511264801,-0.3768934905529022,-0.31462186574935913,-0.18605439730200704,0.06476052515725286,-0.6135243386777794,None
431,21.491,0.749755859375,-0.6974029541015625,-0.076080322265625,0.01956024804247969,-0.018194422353906115,-0.0019848460749716246,0.24647049605846405,0.03646000847220421,0.38031113147735596,-0.10844751017541752,0.06657959018234466,-0.7301956113325203,None
432,21.541,0.5146026611328125,-0.9301605224609375,-0.1167144775390625,0.033400052060625185,-0.0603716463621542,-0.007575300169361879,0.48227185010910034,-0.11021305620670319,1.0116597414016724,-0.12450149033419876,0.06108018177406025,-0.4812026090721873,None
433,21.591,0.3154449462890625,-1.0810546875,-0.1254425048828125,-0.1333927518174478,-0.19061854157658242,-0.050155116885223616,0.8094976544380188,-0.5325440764427185,0.7312369346618652,-0.08425052361045207,0.03448418320831022,-0.4488376981065103,None
434,21.64,0.144561767578125,-1.0752716064453125,-0.066009521484375,0.011564373440886816,-0.08601750390604312,-0.0052805023754777525,1.046712040901184,-0.2012002170085907,0.3500243127346039,-0.06127334780026413,0.024428580245528877,-0.13299739413723818,None
435,21.69,0.108734130859375,-0.913299560546875,0.08782958984375,-0.00895196129954201,0.07519094746320332,-0.007230913449363413,0.6194390058517456,-0.35206297039985657,-0.3974722623825073,0.09572571598847526,0.006827808974606136,-0.11768609215891701,None
436,21.74,0.25018310546875,-0.5680999755859375,0.114166259765625,-0.14620300252286572,0.33198853299151077,-0.06671693491559413,0.051845088601112366,0.27536365389823914,-0.8508738279342651,0.19702250964487966,0.020594588622161694,-0.3963861079916157,None
437,21.79,0.4903106689453125,-0.7278594970703125,0.1212921142578125,-0.06312270788115648,0.09370479845140645,-0.015615174585233815,-0.019037339836359024,-0.7404943108558655,-0.040609210729599,0.16437551406452336,-0.016427931811495676,-0.553433376826469,None
438,21.84,0.771026611328125,-0.9039764404296875,0.1320037841796875,0.2574414236594792,-0.053014095090730184,0.022034052786985073,-0.732146143913269,0.33624085783958435,0.9424580931663513,0.12816408283254607,0.0003833720613361528,-0.5135851876686458,None
439,21.89,0.4012298583984375,-1.21759033203125,-0.2071685791015625,-0.0650503370932769,-0.3362583279092485,-0.283566732236994,-0.8409770131111145,0.7673672437667847,1.0855348110198975,0.08636101072697562,0.03874203609402674,-0.4662801954917144,None
440,21.939,0.2002410888671875,-1.3986663818359375,-0.064849853515625,-0.2519571070583544,-0.5095936697880826,-0.1360292346140687,-0.13157746195793152,0.022284531965851784,0.3170565068721771,0.07980489526600759,0.03985540190217714,-0.4521981959255419,None
441,21.989,0.1664581298828125,-1.1692352294921875,-0.1928863525390625,-0.3108231182166285,-0.29523156278052876,-0.2841014871780885,0.4819679856300354,0.37607908248901367,-0.5665968656539917,0.10380093628376466,0.05863626224566419,-0.477281248099441,None
442,22.039,0.255096435546875,-0.889923095703125,0.024566650390625,-0.020359202868004245,0.07102460998132232,-0.0019606601637453015,0.21553122997283936,-0.053762029856443405,-0.4546718895435333,0.02759485091809181,0.05595257724448518,-0.27545563841487924,None
443,22.089,0.3043060302734375,-0.699432373046875,-0.1504669189453125,-0.0871031890390106,0.20020237572933697,0.043068973931388393,0.6695080399513245,-0.8596103191375732,-0.7044886350631714,-0.21031555652331568,0.013000931258884647,-0.3914092193124481,None
444,22.139,0.34552001953125,-0.6845245361328125,0.0494384765625,-0.10415552934554761,0.20634698825166098,-0.014903016917487133,0.45673051476478577,-0.08438066393136978,-0.5849351286888123,0.0720354586925094,0.008782151442650462,-0.4496755488767976,None
445,22.189,0.37481689453125,-0.810455322265625,0.020965576171875,-0.044827710733416015,0.09692961357656149,-0.0025074611035548443,-0.26206356287002563,0.3282569646835327,-0.049864497035741806,0.02586023441518943,0.025192447037877392,-0.419644605264666,None
446,22.239,0.517791748046875,-0.647491455078125,-0.034942626953125,-0.1062011803334717,0.13280311446544868,0.007166874019085466,0.6248718500137329,0.06488952040672302,0.13203872740268707,-0.05388774637132277,0.028435755040202126,-0.6239929283803467,None
447,22.288,0.5094451904296875,-0.8916015625,0.178466796875,0.020663474545319638,-0.03616402026633492,0.0072387455680968105,0.62516188621521,0.03261173889040947,0.35702577233314514,0.1962710345915991,0.03006564408653144,-0.48878171588436786,None
448,22.338,0.5512847900390625,-0.802490234375,-0.0566864013671875,-0.013988698374979291,0.020362966728581178,0.0014384016846036365,0.2510170340538025,1.9879671335220337,1.172539234161377,-0.07046254358749687,0.12910714112877159,-0.5652734884140418,None
449,22.388,0.243194580078125,-0.9654693603515625,0.2191009521484375,0.004640074017207674,-0.018420843474136084,0.004180375380416906,-0.9043018817901611,0.9325215816497803,1.07400381565094,0.22130999331514184,0.17518592586260812,-0.23855450606091733,None
450,22.438,0.9200897216796875,-0.441680908203125,0.1911163330078125,0.8298162181821829,0.536066621951267,0.0017477457414114828,-0.6369556784629822,0.43854406476020813,3.009610891342163,0.19014494682399652,0.19673018987870566,-0.09027350349750467,None
451,22.488,-0.5220947265625,-0.872650146484375,-0.2265472412109375,-0.020965849004221604,-0.03504316414985498,-0.009097497082233008,-1.1593741178512573,2.2593166828155518,2.869748115539551,-0.25127873008385315,0.30599905849138737,0.5011288775582784,None
452,22.538,0.0823822021484375,-1.23529052734375,0.4912261962890625,0.7007807516943949,-0.46816522423626006,0.6618192889150474,0.7036428451538086,-0.8880677819252014,2.8360092639923096,-0.21707694141379014,0.26343789586575267,0.6183985495459574,None
453,22.588,-0.626007080078125,-1.346038818359375,-0.0071258544921875,0.05117998511127719,-0.6204523362828664,0.11511135656893216,1.0383877754211426,-0.5623810291290283,1.5445945262908936,-0.16612585008786868,0.23621154541069497,0.6771870651894022,None
454,22.637,-0.35858154296875,-1.27325439453125,0.6255950927734375,0.326581855447288,-0.5634068387265095,0.7888971594750611,-1.1843689680099487,0.8004769682884216,0.21790063381195068,-0.22419610552819458,0.27490323322829524,0.685163398416038,None
455,22.687,-0.50152587890625,-1.0576324462890625,-0.33599853515625,0.1603233994766965,-0.32829942647053256,-0.1627101082306277,-0.1430993676185608,-0.21089306473731995,-0.6309004426002502,-0.23116313922579076,0.26474975027313175,0.6618492783829465,None
456,22.737,-0.1620330810546875,-0.9244842529296875,-0.0480804443359375,0.010377898780696254,0.059211390284023446,0.0030794574873312316,1.4338754415512085,-0.681724488735199,-0.7147200107574463,-0.051937662963597295,0.23173239653470754,0.17241097983538375,None
457,22.787,-0.1737823486328125,-0.970703125,0.3868560791015625,-0.009728837619552011,-0.054342763544246275,0.021657320236061206,0.3709160089492798,-0.7300387620925903,-1.048899531364441,0.37021463365854296,0.19607757944236912,0.1640535110132605,None
458,22.837,-0.0903472900390625,-0.8691864013671875,0.161529541015625,0.011318120948930949,0.10888601986386659,-0.020235370438335287,-0.7740349769592285,0.177847221493721,-1.1760079860687256,0.18271160442566883,0.2047894582429388,0.10166541098799345,None
459,22.887,-0.0205841064453125,-0.9644927978515625,-0.038848876953125,0.0007356526087773027,0.034469878241812246,0.0013884147827626855,0.13376179337501526,-0.5159890651702881,-0.9489958882331848,-0.04024643942532598,0.17947144734202283,0.021319759054089803,None
460,22.937,0.0391998291015625,-0.893218994140625,0.052642822265625,-0.004568191237608675,0.10409216763999096,-0.0061347838730046456,0.9913625121116638,-0.054736748337745667,-0.5856757164001465,0.05883398550857416,0.17677837867026397,-0.043768020339171175,None
461,22.986,0.0615692138671875,-0.9192047119140625,0.2955169677734375,-0.002068145145481509,0.030876612567274253,-0.009926584146850492,0.8342048525810242,0.008804943412542343,-0.11590156704187393,0.3060639162127418,0.17721167510278657,-0.06363735901266901,None
462,23.036,0.005584716796875,-0.90673828125,0.39208984375,-0.00006842146973763327,0.011108954693139883,-0.004803710618519252,0.5541662573814392,-0.5862770676612854,-0.7878962159156799,0.396899896477131,0.14828977699905427,-0.005653138266612633,None
463,23.086,0.0707855224609375,-0.9185943603515625,0.22412109375,-0.0038681127812979915,0.050197080738719535,-0.012247217187261378,0.2504114508628845,-0.13848383724689484,-0.6652485728263855,0.23702973673022296,0.14143863922497993,-0.07465363524223549,None
464,23.136,0.032989501953125,-1.0273590087890625,0.2295074462890625,0.0016663651248275263,-0.051893939634371944,0.01159287596786851,0.10511496663093567,-0.34411051869392395,-1.0058008432388306,0.21802155128101233,0.12438598583439239,-0.031323136828297474,None
465,23.186,0.0312957763671875,-1.1771392822265625,0.1680450439453125,-0.03611930462710433,-0.19468133674507637,-0.005827300649307643,-0.8924726843833923,0.8269866108894348,-0.7227597832679749,0.17426880339497228,0.1652961828062171,-0.06741508099429183,None
466,23.236,0.008819580078125,-1.072235107421875,0.2107086181640625,0.0007487925418020493,-0.09103399984849458,0.017889405207170445,-2.179420232772827,1.6904339790344238,-1.8931509256362915,0.19282549315518902,0.24796590293593648,-0.00807078753632295,None
467,23.286,0.4498138427734375,-0.76171875,-0.2191314697265625,-0.04375257048811093,0.07409099083301673,0.021314517615243167,0.3907994329929352,-0.7600831985473633,-1.1801872253417969,-0.2764674546783255,0.21097847298914657,-0.49356641326154843,None
468,23.335,0.4449615478515625,-0.777587890625,0.1870574951171875,-0.04121932699123809,0.07203240298595703,-0.017328203065244185,1.745111346244812,-0.8178000450134277,-0.9455012679100037,0.23388885948566465,0.17084366034129853,-0.4861808748428006,None
469,23.385,0.5019989013671875,-0.7925567626953125,0.0891571044921875,-0.030688339082958094,0.048450804593085595,-0.0054503773750487206,2.4055521488189697,-0.9804645776748657,-0.8735639452934265,0.11178792441524878,0.12235525748080905,-0.5326872404501456,None
470,23.435,0.5003509521484375,-0.802490234375,0.448822021484375,0.02236792063749532,-0.035874895006774765,0.02006434746214758,1.524772047996521,0.1278517097234726,-0.38858768343925476,0.48812929450206877,0.12869726819689856,-0.4779830315109422,None
471,23.485,0.4551544189453125,-0.7466278076171875,0.440155029296875,-0.009784112291890745,0.01604969655551647,-0.009461681691370238,1.0854101181030273,0.06932048499584198,-0.46599751710891724,0.5078446768854326,0.1321336888174064,-0.46493853123720325,None
472,23.535,0.612518310546875,-0.5850982666015625,0.5516357421875,0.006575359761283095,-0.006281006677454903,0.005921787805538314,0.8278617262840271,0.17418751120567322,0.020484235137701035,0.6859942129945741,0.14076157924881866,-0.6059429507855919,None
473,23.585,0.5063323974609375,-0.587554931640625,0.553070068359375,-0.02518469406137991,0.029224658093828126,-0.02750940002256519,0.4814510643482208,0.06238854303956032,0.44080162048339844,0.6854154249820303,0.14384925802532014,-0.5315170915223174,None
474,23.634,0.38336181640625,-0.9080810546875,0.55230712890625,-0.12935869850108084,-0.2972675520905921,-0.05103733210956041,0.4814510643482208,0.06238854303956032,0.44080162048339844,0.7027436304753722,0.14693553703089163,-0.5127205149073308,None
475,23.684,0.2624359130859375,-1.132049560546875,0.74200439453125,-0.21940663650751563,-0.5174126836765919,0.11746515077436248,0.2828492820262909,0.23591798543930054,0.7118853330612183,0.7127345781699471,0.15859291143178134,-0.48184254959345313,None
476,23.734,0.297271728515625,-0.9078826904296875,0.636566162109375,-0.20753136391105798,-0.24113164916005703,0.08828075573572247,-2.1036674976348877,0.4311245083808899,-0.5279519557952881,0.6351523174426436,0.17983782892400293,-0.504803092426683,None
477,23.784,0.463287353515625,-0.554962158203125,0.293731689453125,-0.1304285955737986,0.15623766619521307,-0.0826938431195447,-2.216996431350708,-0.22563818097114563,-0.9878668189048767,0.46779839464332845,0.16872864758919914,-0.5937159490894236,None
478,23.834,0.6238250732421875,-0.3922576904296875,0.107177734375,-0.21391210312029196,0.13450672492021998,-0.036751672145315245,-0.799392819404602,-0.12777766585350037,-0.3618391752243042,0.2635714219556485,0.16242796393609218,-0.8377371763624795,None
479,23.884,0.6483001708984375,-0.4104461669921875,0.1861572265625,-0.17278455223627198,0.10939185328696954,-0.049614506490985644,-0.46387284994125366,-0.4880048334598541,0.5900171995162964,0.4130503056078572,0.13830578646787642,-0.8210847231347095,None
