Index,Time,Raw Acceleration X,Raw Acceleration Y,Raw Acceleration Z,Acceleration X,Acceleration Y,Acceleration Z,Angular Velocity X,Angular Velocity Y,Angular Velocity Z,Orientation X,Orientation Y,Orientation Z,Punch Type
0,0,-0.2296295166015625,-0.625946044921875,-0.569366455078125,0.032276007806229856,0.08798102147831488,0.0800283710068217,1.1641441583633423,-0.925082802772522,-1.0574967861175537,-0.6728827981333677,-0.04623764886765884,0.26190552440779236,None
1,0.05,-0.3895416259765625,-0.6642913818359375,-0.6414031982421875,-0.0008587752075020494,-0.0014644826925692689,-0.0014140238884151612,0.3487105965614319,-1.5534988641738892,-0.7084306478500366,-0.6946048350475195,-0.12361210109136404,0.38868285076906045,None
2,0.099,-0.3802642822265625,-0.7067108154296875,-0.5691070556640625,0.006249441149802137,0.011614416229408286,0.009352971652990205,-0.32121211290359497,-0.22771678864955902,-1.0469309091567993,-0.6272040317727172,-0.13490236172983083,0.38651372337636464,None
3,0.149,-0.2024078369140625,-0.663360595703125,-0.611785888671875,0.01645324825712635,0.053922993948760545,0.04973060954551256,-0.5635043978691101,-1.44637930393219,-0.8221364617347717,-0.6779527663738741,-0.20614518776894245,0.21886108517118885,None
4,0.199,-0.269805908203125,-0.62115478515625,-0.7235260009765625,0.00244512624376092,0.00562923872474963,0.006556981738514267,-0.3616940379142761,0.7114107608795166,-0.6810137033462524,-0.7587435653487994,-0.17121559374678813,0.2722510344468859,None
5,0.249,-0.2789764404296875,-0.6235504150390625,-0.633941650390625,0.020371565208467057,0.04553322825816386,0.04629202254285247,-0.7791096568107605,-0.15595898032188416,-0.7543044090270996,-0.7129255892062378,-0.1788931115495025,0.29934800563815456,None
6,0.299,-0.128936767578125,-0.6089019775390625,-0.7728271484375,0.0010012547873025635,0.004728410921575055,0.006001367155893389,-0.2873087525367737,-0.16734132170677185,-0.9258378148078918,-0.7854877884313899,-0.18711884646203722,0.12993802236542756,None
7,0.349,-0.1928253173828125,-0.6497039794921875,-0.734527587890625,0.00011312969417273666,0.0003811782264921959,0.00043094383303676764,0.1584801822900772,-0.9866966605186462,-0.9555504322052002,-0.7490322011430554,-0.23533496476873517,0.19293844707698524,None
8,0.398,-0.15350341796875,-0.61956787109375,-0.8733062744140625,-0.011595006434769128,-0.046799566727372066,-0.0659659048987219,0.9158394932746887,-0.718321681022644,-1.1140679121017456,-0.8155943539692524,-0.2700830463179539,0.14190841153398087,None
9,0.448,-0.1053619384765625,-0.7111358642578125,-0.7636260986328125,-0.004900539862081846,-0.033075982660727754,-0.03551738123068593,0.7699779272079468,-0.9676539897918701,-1.1936596632003784,-0.7318109808159999,-0.31633347318074395,0.10046139861448065,None
10,0.498,-0.070831298828125,-0.6802825927734375,-0.892608642578125,-0.016950877347065206,0.026437772659452352,-0.18717032120379962,0.7297037243843079,0.06564611941576004,-0.9344925880432129,-0.706464535248193,-0.3132180215811353,0.053880421481059794,None
11,0.548,0.0343475341796875,-0.7642974853515625,-0.69580078125,0.0011342792862128956,-0.02523985569396603,-0.02297784782377066,-0.9963521957397461,1.4636170864105225,-0.27762043476104736,-0.6731943430549104,-0.24294321692605844,-0.033213254893474604,None
12,0.598,0.263336181640625,-0.6522216796875,-0.5989990234375,-0.02169926791120058,0.05374397424941246,0.04935835329250704,0.8226837515830994,0.8471469879150391,-0.16652825474739075,-0.6764172082912794,-0.20164925226942232,-0.2850354495518256,None
13,0.648,0.1808929443359375,-0.753875732421875,-0.6175537109375,-0.0016110040383565116,0.0067138983989070145,0.005499835971350842,1.7290610074996948,-0.2188897430896759,-0.08944199979305267,-0.6336964016625761,-0.21235662472685382,-0.182503948374294,None
14,0.698,0.0345611572265625,-0.6568450927734375,-0.7531890869140625,-0.0000011448928730686814,0.000021759030245926958,0.000024950577089621895,2.762485980987549,1.802768349647522,0.36191266775131226,-0.7536643178856387,-0.12353118429395138,-0.03456230211943557,None
15,0.747,0.141510009765625,-0.8135528564453125,-0.17633056640625,-0.026079457410036394,0.1499329772192055,0.032496679947205176,2.588794469833374,-0.2419697493314743,0.5996498465538025,-0.21182308756373383,-0.1355276720874369,-0.1675894671756614,None
16,0.797,0.0880126953125,-0.8795166015625,-0.0536041259765625,-0.011376794559572023,0.11368904965563997,0.006929035937547887,3.29351806640625,-3.094653606414795,0.06166283041238785,-0.060834376852067884,-0.2866025282932865,-0.09938948987207202,None
17,0.847,0.0023956298828125,-0.8431396484375,0.1190185546875,-0.000417786807586066,0.14703966777054556,-0.020756287255867756,0.9031809568405151,-1.954317569732666,0.13663454353809357,0.1397753951274966,-0.37870306558860495,-0.002813416690398566,None
18,0.897,0.1309661865234375,-0.81536865234375,0.0927734375,-0.026631770206011512,0.16580394649055474,-0.018865334131719577,-1.4948978424072266,0.46080994606018066,0.1971181333065033,0.11305153609286105,-0.3572800364952595,-0.157597956729449,None
19,0.947,0.097747802734375,-0.930816650390625,-0.1793212890625,-0.004825159549755029,0.04594823335219422,0.008851900566456405,-2.2007362842559814,0.3568744957447052,0.2664564549922943,-0.1891709750693155,-0.34055805272258677,-0.10257296228413003,None
20,0.997,0.0189666748046875,-0.963836669921875,-0.385650634765625,0.0006996311425440035,-0.03555341975055071,-0.014225645612757132,-2.2251570224761963,-0.42455101013183594,-0.16442862153053284,-0.37148697411812254,-0.3604384691083845,-0.018267043662143496,None
21,1.047,-0.0003204345703125,-0.8694610595703125,-0.6906585693359375,-0.03440476978509923,0.015446436616036396,-0.22614055968919305,-2.0557029247283936,0.11792610585689545,-0.3164575695991516,-0.4647880699940445,-0.35493226212639917,-0.03408433521478673,None
22,1.096,-0.06927490234375,-0.8011627197265625,-0.8025360107421875,-0.09962621527507795,0.025615578166572894,-0.2408275063235038,-2.267343044281006,1.1570305824279785,0.074699267745018,-0.5619674068626221,-0.30028371480841837,-0.030351312931327944,None
23,1.146,0.0001373291015625,-0.727874755859375,-0.7584381103515625,0.000006689292980839313,-0.03545473930799936,-0.03694347862362424,-1.1184136867523193,1.3339989185333252,0.2663128972053528,-0.721494637884726,-0.23604142386041613,-0.0001306398085816607,None
24,1.196,-0.023590087890625,-0.7417144775390625,-0.737518310546875,-0.0010427193999857781,-0.032784959452722084,-0.03259948219852071,-0.37660694122314453,0.933073878288269,0.3094518482685089,-0.7050980813636865,-0.19046563437737826,0.022547368490639222,None
25,1.246,-0.0229339599609375,-0.7786865234375,-0.5818023681640625,0.0006533019722199211,0.022181840483251336,0.016573353891399467,-0.20461918413639069,0.43055564165115356,0.24690912663936615,-0.5985422473814581,-0.16928944164766305,0.02358726193315742,None
26,1.296,0.00274658203125,-0.742401123046875,-0.5874786376953125,-0.00015454223372600093,0.0417727657761382,0.0330557252260264,0.02443690039217472,0.003995540551841259,0.14922650158405304,-0.6205369743083818,-0.169092544749288,-0.002901124264976001,None
27,1.346,0.002685546875,-0.7200775146484375,-0.616363525390625,-0.00014775172085436383,0.0396167696524905,0.033910698932904326,-0.26716646552085876,0.07431551069021225,0.0806644856929779,-0.6502768344037261,-0.16542911681971145,-0.002833298595854364,None
28,1.395,0.0261993408203125,-0.7177581787109375,-0.6483612060546875,-0.0008774893511736964,0.024039733016808063,0.02171543390839925,-0.20541627705097198,0.06574146449565887,0.14064180850982666,-0.6703224100417097,-0.16218644605320995,-0.027076830171486196,None
29,1.445,0.000640869140625,-0.749420166015625,-0.691162109375,0.000012244554677159794,-0.014318549009857628,-0.013205460682300774,-0.13400866091251373,-0.025968216359615326,0.09600642323493958,-0.6779567826464203,-0.1634675290097769,-0.0006286245859478402,None
30,1.495,0.01092529296875,-0.757232666015625,-0.7435455322265625,0.0006311426715419691,-0.043744533823940945,-0.042953842516157414,0.20293153822422028,0.0075934710912406445,0.004688761197030544,-0.7006288133470717,-0.1630929507793381,-0.010294150297208031,None
31,1.545,0.015655517578125,-0.7867889404296875,-0.6993255615234375,0.0007848219543721627,-0.03944227527611277,-0.03505767542965965,0.13383182883262634,0.046669233590364456,-0.1350097507238388,-0.6643413455766615,-0.16079029056468566,-0.014870695623752837,None
32,1.595,0.0226287841796875,-0.792266845703125,-0.6822509765625,0.00099068926609144,-0.03468548083209688,-0.029868980758921415,0.1989719569683075,-0.029043102636933327,-0.3546195924282074,-0.6525347744126696,-0.16222338107757017,-0.02163809491359606,None
33,1.645,0.0497894287109375,-0.77294921875,-0.6898651123046875,0.0017870651090276732,-0.027743049391022234,-0.024760956372739784,0.2596675157546997,-0.07110453397035599,-0.5170881152153015,-0.6658717581817659,-0.1657304828445342,-0.04800236360190983,None
34,1.695,0.0480194091796875,-0.7486572265625,-0.650146484375,-0.0003523667907335201,0.005493652437416285,0.004770779860048924,0.32981571555137634,-0.26589107513427734,-0.5892385244369507,-0.6556848085485975,-0.1788261553149055,-0.04837177597042102,None
35,1.744,0.097564697265625,-0.733062744140625,-0.6985321044921875,0.00165674076547348,-0.01244809819438164,-0.011861735299126042,0.8931674957275391,-0.33754634857177734,-0.6666022539138794,-0.6898504370166225,-0.1954051655136779,-0.09590795650015152,None
36,1.794,-0.009735107421875,-0.739013671875,-0.8012542724609375,-0.0008043588653803349,-0.06106067173683438,-0.06620327332286347,1.9443163871765137,-0.5865886807441711,-0.8106989860534668,-0.7350803140896135,-0.22408104139272825,0.008930748556494665,None
37,1.844,0.1708984375,-0.6926727294921875,-0.693878173828125,-0.0008203102491089187,0.003324819978419602,0.003330606095355071,3.9126651287078857,-1.1776676177978516,-0.22569917142391205,-0.7077212606252372,-0.28104553141307276,-0.17171874774910892,None
38,1.894,0.1245574951171875,-0.8214569091796875,-0.188995361328125,-0.021624537871586386,0.1426138669994922,0.032811653323222806,3.2697269916534424,-0.6509729623794556,0.7653754353523254,-0.2242156040968791,-0.31212791402610346,-0.14618203298877389,None
39,1.944,-0.0009307861328125,-0.970367431640625,-0.01092529296875,0.00002836262379507027,0.029568732747929594,0.0003329121088077418,1.8687188625335693,0.6181050539016724,0.5147725343704224,-0.01125821025614616,-0.2826223086300019,0.0009591487566075703,None
40,1.994,-0.0010986328125,-1.078521728515625,0.296142578125,0.008494177006733763,-0.07862792210261249,0.2851719857677369,0.4445953071117401,0.2560727894306183,0.17267616093158722,0.010971097160029284,-0.2703178275582964,0.009592809819233763,None
41,2.044,0.080291748046875,-1.1041717529296875,0.2228546142578125,0.11157534803322404,-0.10494221260603942,0.2465540259907062,-0.6936911344528198,0.5292382836341858,0.4339149594306946,-0.0237110171280576,-0.24474939619726296,0.03128359998634904,None
42,2.093,0.2681427001953125,-1.2893218994140625,0.0146636962890625,0.3451004352789999,-0.29590628814336983,0.09953377520068488,-1.2302483320236206,1.3154617547988892,0.9149039387702942,-0.08512252200971736,-0.18049346364717697,0.07695773508368739,None
43,2.143,0.606170654296875,-1.6237335205078125,-0.3184814453125,0.8010313866018128,-0.643975379183511,-0.2726199198872221,0.7690154314041138,1.3233201503753662,2.3816311359405518,-0.046757829975877144,-0.11506667892478922,0.19486073230493786,None
44,2.202,1.1357574462890625,-2.0294189453125,-0.5644683837890625,1.4146532178526898,-1.0707207393935496,-0.62027966017399,2.098498821258545,0.9154219627380371,1.7305721044540405,0.05811729039550582,-0.06949496589300234,0.2788957715636274,None
45,2.252,1.895751953125,-0.6387786865234375,-1.4995269775390625,2.138007224588372,0.33055479485976125,-1.540818445395459,-0.3115600049495697,4.499767303466797,-0.7590874433517456,0.042559198031251536,0.15481218060753213,0.24225527146337208,None
46,2.302,1.152496337890625,0.6909332275390625,-2.121673583984375,1.4876784535689302,1.6321387141454469,-2.1639249900136956,0.04577121511101723,8.35500431060791,1.9421765804290771,0.044845571781168686,0.542312908093867,0.3351821156783053,None
47,2.351,-0.94671630859375,1.5650787353515625,-2.4520111083984375,-0.42149991432174116,2.4151080376779244,-2.4120370621375455,-1.8370532989501953,9.292740821838379,4.223417282104492,-0.04697475472667456,0.8613009537962383,0.5252163942720088,None
48,2.401,-3.6577606201171875,-0.8547515869140625,0.7735748291015625,-2.985675317098125,-0.12443758130110527,0.6513340884651762,4.256714820861816,2.600966453552246,3.681039810180664,0.16508450686618273,0.9199186309447935,0.6720853030190626,None
49,2.451,-1.85791015625,-0.5333099365234375,0.139068603515625,-1.2343820115076447,0.24233797997997608,0.04117599736955302,-0.8059985041618347,-1.1189109086990356,-1.2754781246185303,0.12521424023400698,0.8965540500892286,0.6235281447423553,Hook
50,2.501,-0.9382171630859375,-0.77410888671875,-0.945556640625,-0.35311288800476504,0.030555749738976457,-1.0463922004047252,-0.017596837133169174,-2.727001905441284,-0.9647766947746277,0.1243412746205665,0.8280257000444415,0.5851042750811725,None
51,2.551,-0.567657470703125,-1.0911407470703125,-0.593017578125,-0.03352321098330735,-0.25331490467942874,-0.7059266141476684,0.1858668029308319,-2.7857375144958496,-1.2305055856704712,0.13355699176998662,0.7421619833234463,0.5341342597198177,None
52,2.601,-0.6339569091796875,-1.1314544677734375,-0.578338623046875,-0.17129943683516174,-0.2550145953964701,-0.7117598109879938,0.3422745168209076,-4.2300496101379395,-1.6498581171035767,0.1504970125768619,0.584925271926977,0.46265747234452576,None
53,2.65,-0.562255859375,-0.8738555908203125,-0.2082977294921875,-0.031717944634799156,-0.049295890449693625,-0.01175047932614115,-0.4152347445487976,-2.7698965072631836,-2.2357962131500244,-0.23187005451755688,0.4673519390999101,0.5305379147402008,None
54,2.7,-0.032470703125,-0.6446990966796875,-0.080047607421875,0.01744885694660709,0.3464434468285227,0.043015368205780516,-2.0266273021698,-0.9341495633125305,-2.8040685653686523,-0.123216596960132,0.42556451566091874,0.04991956007160709,None
55,2.75,0.249664306640625,-0.61627197265625,-0.2492218017578125,-0.10192851505908268,0.2516005907716803,0.10174785701381212,-1.2708317041397095,-1.2994897365570068,-2.522514820098877,-0.3749062910614936,0.3659106559494932,-0.3515928216997077,None
56,2.8,0.55499267578125,-0.8512115478515625,-0.1719207763671875,0.016478117714839202,-0.025273061605694203,-0.005104447165212078,-0.12573635578155518,-1.9549530744552612,-1.5547603368759155,-0.19797427108340712,0.2733399220456296,-0.5385145580664108,None
57,2.85,0.3868865966796875,-1.0592803955078125,-0.2747802734375,-0.1805654621772661,-0.2517224835745997,-0.11400596027437751,0.05546592175960541,-1.5213874578475952,-0.6946986317634583,-0.19525510840157367,0.19944754336218273,-0.5674520588569536,None
58,2.9,0.2501220703125,-1.082611083984375,-0.3997650146484375,-0.35222539719497215,-0.2983356303392205,-0.25113950809918517,0.1846340298652649,-1.5270168781280518,-0.8606106042861938,-0.1861929026149836,0.12412231856137393,-0.6023474675074721,None
59,2.95,0.318115234375,-0.92327880859375,-0.4701690673828125,0.02460653290857534,-0.07141654322870672,-0.03636804962163914,0.9598631858825684,-0.9270399808883667,-0.45256295800209045,-0.4537874498662808,0.07801191581391284,-0.29350870146642466,None
60,2.999,0.345977783203125,-1.0196533203125,-0.2482147216796875,0.04380984026654505,-0.14459651842925503,0.12989918673858697,1.262804388999939,-0.5956599116325378,-0.18141905963420868,-0.3966556955767279,0.048289478761890256,-0.30216794293657995,None
61,3.049,0.49072265625,-0.930389404296875,-0.2615509033203125,0.0379852594635805,-0.07201844560113047,-0.02024581257665542,1.3610854148864746,-0.820845901966095,-0.23147930204868317,-0.27062944070276673,0.007265906945722308,-0.4527373967864195,None
62,3.099,0.3958892822265625,-0.870452880859375,-0.4306182861328125,0.018397691529339677,-0.04045152094749316,-0.020011611202524593,2.0275685787200928,-0.6350075602531433,-0.00956953689455986,-0.44341350442742555,-0.024481960862747187,-0.3774915906972228,None
63,3.149,0.3421478271484375,-0.8696441650390625,-0.235321044921875,-0.012886949387964919,0.03275502414789666,0.008863333785006144,2.4350650310516357,0.1344747245311737,-0.32706335186958313,-0.26120080284457525,-0.017759737179683148,-0.3550347765364024,None
64,3.199,0.3139495849609375,-0.7241363525390625,0.041778564453125,-0.08326938748151813,0.192063928151174,-0.011081000385146915,2.5122742652893066,0.6083024740219116,-0.20514622330665588,0.05759855114827349,0.012654115059765733,-0.39721897244245563,None
65,3.249,0.3084564208984375,-0.711151123046875,0.459747314453125,-0.033798148755564084,0.07792216279504438,-0.05037537581029672,2.1768014430999756,0.3562278747558594,-0.22355853021144867,0.5429105436922105,0.03046113384775442,-0.3422545696540016,None
66,3.299,0.36962890625,-0.7391204833984375,0.72625732421875,0.022897980757190683,0.02136041648802789,0.17721591757006028,1.0283527374267578,-0.07036231458187103,-0.09536460041999817,0.5853540564500808,0.026944469436613303,-0.3467309254928093,None
67,3.348,0.3327178955078125,-0.9126434326171875,0.6041107177734375,-0.01069275182879409,-0.14048846901622392,0.06946519082848335,-0.394097238779068,-0.12825411558151245,0.07075139880180359,0.5692651884266554,0.02053358182790327,-0.3434106473366066,None
68,3.398,0.4032440185546875,-1.0753326416015625,0.372222900390625,0.0587088272633447,-0.2960651242784973,-0.15126314374711913,-0.2817331552505493,-0.5568022727966309,-0.02395247109234333,0.5576276900578077,-0.007305023644302283,-0.3445351912913428,None
69,3.448,0.404937744140625,-1.33905029296875,0.1909332275390625,0.043809514583977804,-0.5814941522425618,-0.3528453077722583,0.6210323572158813,-0.6838371753692627,-0.3546774089336395,0.5831304105205608,-0.041485038809135566,-0.3611282295566472,None
70,3.498,0.38104248046875,-1.0482025146484375,0.00933837890625,-0.031643635070643605,-0.3987347714815527,-0.6293178828079211,3.0885677337646484,-2.0332765579223633,-1.1184711456298828,0.7011471970689205,-0.14267226262382982,-0.4126861155393936,None
71,3.548,0.3388519287109375,-0.7650146484375,0.5506439208984375,0.0005538091811077561,-0.0012503164364402464,0.0008999555058596398,3.3519740104675293,-1.0436832904815674,-1.7093757390975952,0.5841882969046847,-0.1941049258196771,-0.33829811952982974,None
72,3.598,0.3303985595703125,-0.44482421875,0.6072540283203125,-0.07151485907686289,0.09628232447276164,-0.13144030142160035,1.3273626565933228,-0.8270755410194397,-2.357365131378174,0.8067187288347013,-0.23449467527151982,-0.4019134186471754,None
73,3.647,0.534149169921875,-0.1106719970703125,0.5142974853515625,0.049325177590982094,0.39629417478806905,-0.19839529351713936,0.2784510552883148,-0.03659263253211975,-1.851128101348877,0.8148676103248422,-0.23627289853498323,-0.4848239923308929,None
74,3.697,0.684600830078125,0.0010833740234375,0.62078857421875,0.17165074585018014,0.5114401957888213,-0.06944191305929015,-0.36774659156799316,-0.03512895852327347,-0.6491202116012573,0.8040723013544394,-0.23797925035004322,-0.5129500842279449,None
75,3.747,0.670745849609375,-0.082794189453125,0.6619720458984375,0.18305176670204,0.46728695002304965,-0.01594035367083335,-0.899823784828186,-0.14896364510059357,0.5834290981292725,0.7765189770676726,-0.24520678025077894,-0.487694082907335,None
76,3.797,0.5653076171875,-0.490966796875,0.4517822265625,-0.08113690917435867,0.07046699388885092,-0.0648429498713674,-1.5887830257415771,-0.48232802748680115,1.4248409271240234,0.6771318354206752,-0.2685133581913451,-0.6464445263618587,None
77,3.847,0.4054412841796875,-0.7109832763671875,0.211212158203125,-0.07421458250515672,0.13014295554656508,-0.03866163302233194,-1.0990498065948486,-0.795592725276947,1.1604807376861572,0.2847705111616739,-0.30660959790113707,-0.4796558666848442,None
78,3.897,0.54217529296875,-0.5745391845703125,0.3153839111328125,-0.0952298343693172,0.10091435757930589,-0.055395290064714164,-0.6119560599327087,0.5543878674507141,1.7679029703140259,0.48120093461916347,-0.2801108913035765,-0.6374051273380672,None
79,3.947,0.353790283203125,-0.71258544921875,0.43701171875,-0.03597405956862976,0.07245702500884188,-0.044436171225979204,-1.2947309017181396,0.5438134670257568,2.2094573974609375,0.5227931818079392,-0.2539083995630611,-0.38976434277175476,None
80,3.996,0.2468414306640625,-0.79351806640625,0.5222015380859375,-0.00465866980713181,0.014976167685608388,-0.0098555762384539,-2.6291778087615967,1.6718491315841675,2.5850605964660645,0.5497268342914114,-0.17226294104555515,-0.2515001004711943,None
81,4.046,-0.0350341796875,-0.971405029296875,0.8250274658203125,-0.14743836078744527,-0.053565199368087235,0.4443237139770392,-3.77705454826355,1.9533356428146362,2.8317525386810303,0.3831318235239192,-0.07538811786598959,-0.11240418109994525,None
82,4.096,-0.27947998046875,-1.1927642822265625,0.7193450927734375,-0.25118828216551786,-0.2283128528213132,0.45660373682563393,-2.544262647628784,-0.19960126280784607,2.818754196166992,0.26284657085752483,-0.08533586084958053,0.02829169830323213,None
83,4.146,-0.2191619873046875,-1.41119384765625,0.59228515625,-0.07032274332184921,-0.4318535892340363,0.4553927251804599,-2.541818380355835,-2.21724534034729,2.4219772815704346,0.1384343956561847,-0.19504373465827357,0.1488392439828383,None
84,4.196,0.201904296875,-1.98956298828125,-0.500091552734375,0.45229700943155543,-1.0257027108135213,-0.5910687752595943,-0.895416796207428,-1.4227993488311768,2.0738306045532227,0.09397072056714265,-0.2642652489210448,0.25039271255655543,None
85,4.246,0.5558624267578125,-2.3688201904296875,-0.84246826171875,0.9765420543430321,-1.476695014144835,-1.0072144931581424,1.7700071334838867,0.6375903487205505,3.622169256210327,0.1815967249806068,-0.23338997923316857,0.42067962758521965,None
86,4.296,0.70428466796875,-2.6719512939453125,-0.3153839111328125,1.2190829245074553,-1.8966019892025683,-0.6811928922960045,5.164467811584473,-1.7125846147537231,2.1315596103668213,0.42669326623467296,-0.315697561476508,0.5147982565387053,None
87,4.345,0.518463134765625,-1.8455657958984375,-1.1948394775390625,1.1284526699682746,-1.1545998628488712,-1.5827555075097217,1.4145734310150146,1.5573010444641113,2.3055014610290527,0.48953987178129044,-0.24093262562261986,0.6099895352026496,None
88,4.395,0.27093505859375,-1.3053436279296875,-1.5858306884765625,0.8045201195109749,-0.5577716691194267,-1.9813343536511738,-0.4988923668861389,1.8537731170654297,-1.864270567893982,0.4676386000648588,-0.1500689514919627,0.5335850609172249,None
89,4.445,-0.6265106201171875,1.4829254150390625,-6.3087158203125,-0.10920548532728525,2.161575511888574,-6.830088473571328,3.3692305088043213,0.4720016121864319,-0.38269704580307007,0.6092218131488211,-0.12669650552892647,0.5173051347899023,None
90,4.495,-3.2776641845703125,2.0458831787109375,-3.546295166015625,-2.6574168402276848,2.435551066127903,-4.22706838034762,7.916934490203857,7.658285140991211,2.5071797370910645,0.8678834180366107,0.2530932982179553,0.6202473443426276,None
91,4.545,-3.718780517578125,1.744476318359375,3.7239227294921875,-3.108493324280106,2.080034436831059,3.0063223596315174,1.6493606567382812,7.9146409034729,-0.25269830226898193,0.9058549159044517,0.6064660190431079,0.6102871932980187,None
92,4.595,-1.6768951416015625,1.232391357421875,1.67974853515625,-1.0787786184270325,1.558481854700846,0.947681863131109,0.366975337266922,-0.2060072273015976,-0.305484801530838,0.9134743128325671,0.5982440776928549,0.5981165231745299,Hook
93,4.644,-2.0408782958984375,-0.128021240234375,0.0124664306640625,-1.4145359339026522,0.17222548704043728,-0.7069410674413612,0.4735659658908844,-1.8600057363510132,0.714069664478302,0.9228519637661481,0.5212437718081114,0.6263423619957853,None
94,4.694,-1.9259490966796875,-0.5604095458984375,0.082550048828125,-1.3238543328283323,-0.23797361781416837,-0.6478724094952873,-0.40670090913772583,-2.13438081741333,-0.6146035194396973,0.914829562738574,0.4273762879062265,0.6020947638513551,None
95,4.744,-1.42340087890625,-0.642364501953125,-0.148895263671875,-0.8788346083938111,-0.29824266312153586,-0.9137663227787934,-0.14134034514427185,-1.3024088144302368,-1.4050049781799316,0.9119527966973772,0.36763834173308374,0.5445662705124389,None
96,4.794,-1.4557342529296875,-0.7287750244140625,-0.2007293701171875,-1.0327748466511883,-0.3585384324221771,-1.0277905568444898,0.0375409834086895,-2.210853338241577,-2.7832627296447754,0.9127213338377853,0.2628024188785654,0.4229594062784991,None
97,4.844,-0.8013916015625,-0.5634307861328125,0.0465240478515625,0.015739490698066794,0.011065892879400518,-0.0009137415677532915,-0.8037095069885254,-1.054625391960144,-3.089168071746826,0.08229271251705315,0.21158295796971768,0.8171310922605668,None
98,4.894,-0.4113311767578125,-0.5662841796875,-0.0494232177734375,0.1749023325959036,0.24078997541637315,0.021015270811964568,0.4788134694099426,-1.5119225978851318,-3.299877643585205,-0.0869458405942275,0.1371643868906151,0.5862335093537161,None
99,4.944,0.1932830810546875,-0.49456787109375,0.3947296142578125,-0.09884427773324167,0.25292024393225154,-0.20186331575599814,0.06881608068943024,-1.4192941188812256,-2.544884443283081,0.6238036012375816,0.06658416899666149,-0.29212735878792917,None
100,4.993,0.461181640625,-0.73419189453125,0.542724609375,0.010314248288969818,-0.016420075789838284,0.012137942798507217,-1.7971689701080322,-0.6284016370773315,-2.7834033966064453,0.5944342923684807,0.035206108294091515,-0.4508673923360302,None
101,5.043,0.7345123291015625,-0.609039306640625,0.3189697265625,0.004432340305898896,-0.0036751860516784918,0.001924790530247411,-2.781400442123413,-0.004939098376780748,-2.3979151248931885,0.4639489410561045,0.034959305398276116,-0.7300799887956636,None
102,5.093,0.7633056640625,-0.789306640625,0.01605224609375,0.06821226475036668,-0.0705358234248954,0.0014344974915519795,-0.7587636113166809,-0.904078483581543,-1.7420817613601685,0.02033294374564295,-0.010237315100121465,-0.6950933993121333,None
103,5.143,0.7752227783203125,-0.872894287109375,0.0460205078125,0.05537536611142402,-0.1798669065979639,0.006870118316883972,0.7219502329826355,-1.1777573823928833,-0.7006531953811646,0.05640190974096742,-0.06907032572611703,-0.7198474122088885,None
104,5.193,0.551025390625,-0.987548828125,0.074310302734375,-0.1730938246499717,-0.301820864451002,0.0006317990506594234,1.01206374168396,-0.4798901677131653,-0.12347932904958725,0.10683078630820259,-0.09298535121422188,-0.7241192152749717,None
105,5.243,0.471710205078125,-0.912506103515625,0.1728363037109375,0.01886441212182083,-0.03649251386779884,0.006911987969976496,0.621647298336029,0.27801910042762756,-0.3476059138774872,0.18609958464601206,-0.07913608421414603,-0.45284579295630417,None
106,5.293,0.369354248046875,-0.8606414794921875,0.198974609375,-0.016413046739746806,0.038244446635624985,-0.008841862740077006,0.42368629574775696,0.6779364347457886,-0.03278457745909691,0.2252518392253933,-0.045306580304225005,-0.3857672947866218,None
107,5.342,0.2907562255859375,-0.8099212646484375,0.2763671875,-0.030940848115989183,0.08618783926258677,-0.029409637422030732,1.0409317016601562,0.6386705040931702,-0.49554184079170227,0.32294365575192985,-0.01338816947837956,-0.3216970737019267,None
108,5.392,0.4207611083984375,-0.6256103515625,0.486328125,-0.048217414382101254,0.07169225710484683,-0.05573111264501662,-0.5166255235671997,0.4968886077404022,-0.14917750656604767,0.6137379573749158,0.011455610350236359,-0.46897852278053875,None
109,5.442,0.4121246337890625,-0.6657867431640625,0.3667144775390625,-0.06451971473446622,0.10423150479502974,-0.0574105781114978,-1.1410417556762695,0.26717525720596313,-0.46186190843582153,0.48245578325376803,0.024812077193864114,-0.4766443485235287,None
110,5.492,0.6106414794921875,-0.71160888671875,0.279449462890625,-0.013449862402644785,0.01567374954421008,-0.006155095830531365,-1.143678069114685,-0.9271672964096069,-0.5505883097648621,0.36552639674602827,-0.02154207455254303,-0.6240913418948323,None
111,5.542,0.6691436767578125,-0.9440155029296875,-0.0033111572265625,0.05329007765075733,-0.19888821220247954,-0.2592597166685282,-0.8665798306465149,-0.5759610533714294,0.2099822610616684,0.32486528128854736,-0.05032053290004413,-0.6158535991070552,None
112,5.592,0.5772247314453125,-1.186309814453125,0.03045654296875,-0.02699954328637899,-0.4236951479008697,-0.2004804531673257,-0.736498236656189,-0.40974918007850647,0.29353946447372437,0.2898253666583595,-0.07077004506702086,-0.6042242747316915,None
113,5.642,0.4607086181640625,-1.193359375,-0.2663421630859375,-0.1391581222805589,-0.422378211101196,-0.48022984066833285,-0.46854376792907715,-0.2863105833530426,0.10914859175682068,0.267326205486623,-0.08504194108247576,-0.5998667404446214,None
114,5.691,0.3642425537109375,-1.0645294189453125,-0.23175048828125,-0.2154992119574376,-0.28679039458599187,-0.47469388730317663,0.6430098414421082,0.3182506859302521,0.4984563887119293,0.29816312908202397,-0.0691769546081272,-0.5797417656683751,None
115,5.741,0.223663330078125,-0.9810638427734375,0.1215057373046875,0.0029892187339023713,-0.013111735468430474,0.0016239015403234636,1.095070242881775,-0.1601441353559494,0.49706941843032837,0.12291190959175245,-0.07716267635199162,-0.22067411134422263,None
116,5.791,0.2523040771484375,-0.7267913818359375,0.2265625,-0.06228718111202697,0.1794255049015394,-0.0559322688328629,-0.26784688234329224,0.08457853645086288,0.3551378548145294,0.297604997998259,-0.07294568059337286,-0.31459125826046447,None
117,5.841,0.3071746826171875,-0.69464111328125,0.2406158447265625,-0.07836962725767976,0.17722412752861816,-0.06138843834018953,-1.2218791246414185,-0.28695133328437805,0.6694267988204956,0.3273087439425255,-0.08724702528908343,-0.38554430987486726,None
118,5.891,0.1653289794921875,-0.773162841796875,0.1159515380859375,-0.041565259707551344,0.19438040695723358,-0.02915130673905708,-1.6260923147201538,-0.8663137555122375,0.7965080738067627,0.14831182115945696,-0.13030220966814127,-0.20689423919973884,None
119,5.941,-0.07476806640625,-1.1086883544921875,-0.01812744140625,-0.23640275937683303,-0.1239797631442412,-0.08311371806408359,-1.6592223644256592,-0.7162705063819885,0.9210507869720459,0.06585218945719376,-0.16571925598840848,-0.16163469297058303,None
120,5.99,-0.0288543701171875,-1.3620147705078125,0.13226318359375,-0.1214757537866457,-0.3681722082565587,0.07145002099700709,-0.09572279453277588,-1.1566669940948486,1.391851544380188,0.06107570257117203,-0.2224440911397245,-0.0926213836694582,None
121,6.04,0.54266357421875,-1.7241363525390625,0.267822265625,0.5313336133250589,-0.7248232054023821,0.2325396077612475,-0.5164297819137573,-0.4380018413066864,1.628482460975647,0.03528492266415748,-0.24374043798773012,-0.01132996089369113,None
122,6.09,1.329193115234375,-1.9186248779296875,-0.2247467041015625,1.413783083684803,-0.9269744531721259,-0.3220810367684237,1.2509645223617554,-0.7785074710845947,1.9204275608062744,0.09768444882004859,-0.28129767656056304,0.08458996845042813,None
123,6.14,1.4521484375,-1.5726318359375,-0.3879241943359375,1.663468147857684,-0.6127245676390383,-0.5721034990423284,1.8345520496368408,1.866203784942627,2.564675807952881,0.18843472729760088,-0.1906614700147792,0.21131971035768404,None
124,6.19,1.4200897216796875,-1.0477142333984375,-0.5175018310546875,1.7104149837985538,-0.14218546156200307,-0.826902680361877,2.7935070991516113,1.7370843887329102,1.6328351497650146,0.323327190453512,-0.1047889834490357,0.2903252621188662,None
125,6.24,0.867279052734375,-0.7872467041015625,-1.540130615234375,1.2039484885010538,0.06573940479963969,-1.9389644014688572,2.162564277648926,1.667243242263794,0.9762176275253296,0.4235599888886763,-0.02161786767327475,0.33666943576667874,None
126,6.29,-0.3052520751953125,0.1105499267578125,-3.307708740234375,0.05961245795016129,0.9043405868780737,-3.7942991844052147,2.250978469848633,4.0135955810546875,0.6021939516067505,0.5226195108112255,0.17810490499999626,0.3648645331454738,None
127,6.339,-0.970611572265625,0.810699462890625,-2.071441650390625,-0.6016857048308747,1.6302667028816433,-2.509851553872539,-1.1744425296783447,6.365220546722412,0.08731599897146225,0.4716829755761101,0.47707300104145595,0.3689258674347503,None
128,6.389,-3.6003570556640625,0.38427734375,0.1540069580078125,-2.99318905598171,0.989227127771579,-0.3611462026871173,4.28405237197876,4.561130523681641,5.49276876449585,0.6483392305488549,0.6634181640147188,0.6071679996823522,None
129,6.439,-2.7410888671875,-0.1689910888671875,1.686676025390625,-2.1684726533125116,0.460692032465844,1.1616904652884785,-0.20857743918895721,0.6883237957954407,-0.8559607267379761,0.6403640794260763,0.6887720929235317,0.5726162138749883,Hook
130,6.489,-1.885894775390625,-0.4100799560546875,0.023101806640625,-1.3469280704954882,0.2380315584860856,-0.5149189696628037,-0.04247528687119484,-1.5338910818099976,-0.8096718192100525,0.638731433623729,0.6312000216302797,0.5389667048951368,None
131,6.539,-1.4132537841796875,-0.736114501953125,-0.2348480224609375,-0.9384046682993539,-0.03154223554570512,-0.7621963310361876,-1.0065973997116089,-2.059016704559326,-1.4883466958999634,0.5992136677093537,0.548148213390886,0.47484911588033357,None
132,6.589,-1.467620849609375,-1.06640625,-0.8503875732421875,-1.057789658553744,-0.3358408677795136,-1.3965675958894441,-0.010940265841782093,-3.3215718269348145,-1.4504717588424683,0.5987756451775034,0.40233868870821177,0.4098311910556308,None
133,6.639,-1.1844024658203125,-1.0411224365234375,-0.4003448486328125,-0.8668935447196315,-0.3055646745641938,-0.9987952340809215,0.8201545476913452,-2.644056797027588,-1.9833534955978394,0.6311068285978216,0.2781496004907416,0.31750892110068096,None
134,6.688,-0.702667236328125,-0.68914794921875,-0.2575531005859375,-0.01198293742213552,-0.011752386226565048,-0.004392182426671554,1.5810457468032837,-2.5141384601593018,-2.843951463699341,-0.35007767783760824,0.15552631280348736,0.6906842989059895,None
135,6.738,-0.1263275146484375,-0.577484130859375,0.112274169921875,0.08362082556187483,0.3822579736942521,-0.07431840010680951,0.7043730616569519,-2.2277626991271973,-2.519014358520508,0.1908460552138151,0.04475713565587999,0.20994834021031233,None
136,6.788,0.6353912353515625,-0.3107452392578125,-0.0287017822265625,0.7415284511952758,0.6620071268707418,-0.23482729157522195,0.3357313871383667,-2.809149742126465,-2.1036922931671143,0.20729642467728776,-0.09553945082066365,0.10613721584371329,None
137,6.838,0.626983642578125,-0.39727783203125,0.0068511962890625,-0.2176848258812244,0.13793239539166602,-0.0023786927919367245,0.5500484704971313,-2.465303421020508,-0.623823881149292,0.017242788757797962,-0.21720536322408113,-0.8446684684593494,None
138,6.888,1.117919921875,-0.577667236328125,0.125335693359375,0.2590584653102741,-0.06555086860628867,0.11564939690973436,0.033367011696100235,-3.0407700538635254,-0.5419436693191528,0.018910866541810022,-0.3625373908120448,-0.8588614565647259,None
139,6.938,0.9027252197265625,-0.6954345703125,-0.0820465087890625,0.035622909398189795,-0.19870546500437175,-0.11937986335284133,1.122106909751892,-2.3763463497161865,-0.3262540102005005,0.0749469978816409,-0.470455047595035,-0.8671023103283727,None
140,6.987,0.8441009521484375,-0.729461669921875,0.44488525390625,-0.018077344244482818,-0.2271196286056626,0.3793027962269096,1.096036434173584,-2.2429821491241455,0.19603076577186584,0.12945482751201415,-0.5662553313995342,-0.8621782963929203,None
141,7.037,0.62933349609375,-0.7874908447265625,0.4421844482421875,-0.2269981982439918,-0.2760487300826253,0.3706093643009857,0.18450726568698883,-1.7615164518356323,0.22859668731689453,0.13859692382599903,-0.6365613344950015,-0.8563316943377418,None
142,7.087,0.56927490234375,-0.7665252685546875,0.4619598388671875,0.03256734669688144,-0.043851738536449414,0.02642801600857919,-0.8703261017799377,-1.0497440099716187,0.0782918781042099,0.5161746487084428,-0.6761456166670422,-0.5367075556468686,None
143,7.137,0.5721893310546875,-0.7690887451171875,0.478515625,0.03812644992498382,-0.05124636538491578,0.031884729450051386,-0.39409324526786804,-1.5670372247695923,0.20341703295707703,0.5282792178562548,-0.7317393430765301,-0.5340628811297037,None
144,7.187,0.6010284423828125,-0.7496185302734375,0.4234619140625,0.02861602055271273,-0.035690655809823224,0.020161766035666495,-1.0122424364089966,-1.0695455074310303,0.6874963641166687,0.4918499237233235,-0.7671251868450791,-0.5724124218300998,None
145,7.237,0.64874267578125,-0.713226318359375,0.3006744384765625,0.006380360369389715,-0.007014554623812397,0.002957122050024019,-1.6716907024383545,-0.42984724044799805,1.004370927810669,0.3884614909595194,-0.7807342513098605,-0.6423623154118603,None
146,7.287,0.529296875,-0.99627685546875,-0.18328857421875,-0.04665642052460184,-0.22116963191220562,-0.44307039299138046,-1.5114266872406006,-0.5529702305793762,1.67613685131073,0.31778268890214373,-0.7977101945502032,-0.5759532955246018,None
147,7.336,0.3817291259765625,-1.492431640625,0.0718841552734375,-0.10226593443937643,-0.6530065038658032,-0.17532875148867996,-0.7396860718727112,1.2633466720581055,2.1711082458496094,0.2825062002989315,-0.7580520823923665,-0.4839950604159389,None
148,7.386,1.047149658203125,-1.475921630859375,0.1993865966796875,0.6568719241144145,-0.5753949308015623,0.007722951828693342,-1.5339957475662231,2.731828451156616,2.085623264312744,0.2081722957386493,-0.6621841421311437,-0.39027773408871047,None
149,7.436,1.2256927490234375,-1.39654541015625,-0.2851409912109375,1.0210671364634192,-0.44990256225577696,-0.5341303026347796,0.9498414397239685,3.500486135482788,3.897040367126465,0.2543717377329744,-0.5215831676249706,-0.20462561256001838,None
150,7.486,1.2401123046875,-1.7278289794921875,0.115631103515625,1.2838834706881905,-0.8068665369471966,-0.2715539484278926,2.8156285285949707,2.2187085151672363,4.9973273277282715,0.3875564925845115,-0.42392084612660963,0.043771166000690566,None
151,7.536,0.7623291015625,-1.9535369873046875,-0.3956298828125,0.9186860142440246,-1.1023717963139386,-0.8966990731469129,2.6815907955169678,2.1331677436828613,2.2643191814422607,0.507308773431551,-0.32509449696929266,0.15635691268152466,None
152,7.586,0.485107421875,-0.5370330810546875,-1.8565826416015625,0.5418386528699753,0.3238664034523392,-2.3621849012932397,-0.020670391619205475,0.28848958015441895,-2.0047881603240967,0.5064178523079995,-0.31142018662882015,0.056731230994975373,None
153,7.636,0.2350311279296875,0.988677978515625,-3.4651336669921875,0.3255454951143275,1.882730282378319,-3.903856389552774,-1.4967069625854492,6.141412258148193,0.677534282207489,0.440531036487531,-0.009616410965409184,0.09051436718463998,None
154,7.685,-1.78924560546875,1.7676849365234375,-2.9715576171875,-1.468046971683515,2.5527515481638883,-3.501181873563546,2.7460148334503174,6.967734336853027,4.727129936218262,0.559258322123056,0.3323274006252819,0.3211986337852351,None
155,7.735,-3.441650390625,0.61474609375,0.522003173828125,-2.8585052343471706,1.218470495922244,-0.021557837403799684,2.7903103828430176,4.863431930541992,5.9120001792907715,0.6691068924417121,0.549647107485055,0.5831451562778294,None
156,7.785,-3.2084503173828125,-0.3212432861328125,1.03265380859375,-2.6127035093893833,0.2087600413343682,0.42917869424407207,2.3424196243286133,-0.3905951678752899,0.3120045065879822,0.7513644527117332,0.5332282265544563,0.595746807993429,None
157,7.835,-2.1754150390625,-0.1921234130859375,0.1808319091796875,-1.6588259260985123,0.37525608163250024,-0.4604295019001705,-0.07354132831096649,-0.7078351974487305,-1.9066520929336548,0.7489329286392347,0.5029601391793339,0.5165891129639878,Hook
158,7.885,-1.62994384765625,-0.53271484375,-0.1400909423828125,-1.2535963274710715,0.09186965561595428,-0.8243838235398848,-0.30931442975997925,-2.7679479122161865,-3.14023494720459,0.7385954753484529,0.37891430752277444,0.3763475201851784,None
159,7.935,-1.2553863525390625,-0.6061859130859375,-0.56976318359375,-1.0120879603132122,0.08316405987240072,-1.2521139050872168,-1.0137794017791748,-3.2016615867614746,-2.8017163276672363,0.7034895340134291,0.22655549530990213,0.24329839222585029,None
160,7.984,-1.38128662109375,-1.00439453125,-0.9215240478515625,-1.2975361465007837,-0.3413294486863868,-1.6653859666848643,1.249348759651184,-3.7498044967651367,-3.238325834274292,0.7464844998541182,0.04103800858382257,0.08375047459296621,None
161,8.034,-0.660980224609375,-0.6859283447265625,-0.1824798583984375,0.020518218381388675,0.021292660577555966,0.005664559158387483,0.6682526469230652,-3.0928096771240234,-3.633699417114258,-0.257091265624132,-0.11334682976527159,0.6814984429907637,None
162,8.084,-0.2818756103515625,-0.571929931640625,-0.3463134765625,0.10659854847135919,0.2162900879014501,0.13096739328241042,0.363684743642807,-2.595388174057007,-3.6176466941833496,-0.5179617863127862,-0.2409653200242957,0.3884741588229217,None
163,8.134,0.66717529296875,-0.415924072265625,-0.365997314453125,0.914556020261326,0.4517500273561875,0.06521543189103535,1.6648283004760742,-4.069522380828857,-2.9799818992614746,-0.44504549303152924,-0.43211477582436986,0.24738072729257596,None
164,8.184,1.0120391845703125,-0.3387603759765625,-0.2027740478515625,1.1889167838694508,0.5853793419663963,0.13587045097645956,2.199549436569214,-3.5092933177948,-1.4432580471038818,-0.34406949204882536,-0.5829064698992018,0.17687759929913827,None
165,8.234,1.0258331298828125,-0.454620361328125,0.1460113525390625,1.1888292064260801,0.4947168228127158,0.4146955348778087,1.508758783340454,-2.3972036838531494,-0.2817307412624359,-0.2723260759750412,-0.675882406441095,0.1629960765432676,None
166,8.284,1.0123138427734375,-0.378936767578125,0.2475738525390625,1.1975979965164762,0.5778089625374458,0.47186694266301055,0.9106953740119934,-1.8536908626556396,0.45268863439559937,-0.22824515815598165,-0.7411930534233591,0.18528415374303875,None
167,8.333,0.7563629150390625,-0.6249237060546875,0.4111480712890625,0.045357718382514456,-0.03747554633653871,0.024655807496960502,0.836826741695404,-0.8976224064826965,1.2628086805343628,0.549629613835676,-0.7705649009119969,-0.711005196656548,None
168,8.383,0.548583984375,-0.7531890869140625,0.4849700927734375,0.02634425427581788,-0.03616985801370298,0.02328937009480203,0.4304017126560211,-1.352684497833252,0.895647406578064,0.5413712632060059,-0.811877737337164,-0.5222397300991821,None
169,8.433,0.4854736328125,-0.9168853759765625,0.500518798828125,-0.024938565226971243,-0.1860510175804877,0.047351579492576346,-0.3404425382614136,-1.0131690502166748,0.27622225880622864,0.52698159823177,-0.8403993566959932,-0.5104121980394712,None
170,8.483,0.72540283203125,-0.8154449462890625,0.3398284912109375,0.2022429920132197,-0.066788627236673,-0.06737845585067109,-1.1376808881759644,-1.3573732376098633,-0.2978079915046692,0.477810870307958,-0.8752189817308457,-0.5231598400180303,None
171,8.533,0.70745849609375,-1.0014495849609375,0.07489013671875,0.20313572961665993,-0.24077106737873266,-0.33379891390755917,-0.10289069265127182,-0.9196526408195496,0.4391390085220337,0.4732852853785916,-0.8965290615610332,-0.5043227664770901,None
172,8.583,0.577789306640625,-0.961151123046875,-0.0456695556640625,0.07644481959302918,-0.20134568534219577,-0.45961327423143483,0.11654765158891678,-0.6134021878242493,0.06891115754842758,0.4784106153374356,-0.9096916981869758,-0.5013444870475958,None
173,8.633,0.498779296875,-0.7837677001953125,0.0362548828125,-0.037701649837636686,0.059243307755451835,-0.0027404282921630746,0.14834952354431152,0.3356408476829529,0.1366174966096878,0.046207769432644194,-0.9025946089237591,-0.5364809467126367,None
174,8.682,0.5566558837890625,-0.5536651611328125,0.3408966064453125,-0.0936939141765728,0.09319052865592892,-0.057378244472980955,-0.5024527311325073,0.024119185283780098,-0.016516925767064095,0.5242977449712454,-0.9020747974418473,-0.6503497979656353,None
175,8.732,0.377349853515625,-0.698211669921875,0.292755126953125,-0.06872693244591277,0.12716566821108266,-0.053319649248171785,-0.4270716905593872,-0.033002957701683044,0.7313826084136963,0.3866780203212042,-0.9027857393214399,-0.44607678596153777,None
176,8.782,0.3053436279296875,-1.0238189697265625,0.88543701171875,-0.07577363297446993,-0.15105728006481445,0.5804178869090377,-1.216173768043518,0.5454428195953369,1.4274511337280273,0.32991921405339386,-0.8907219907638685,-0.38111726090415743,None
177,8.832,0.5745086669921875,-1.1864471435546875,0.619293212890625,0.2555650511137434,-0.2656350031002641,0.39483838028030505,-1.9424647092819214,-0.006205964367836714,1.3277956247329712,0.236823236047208,-0.8908629934684946,-0.3189436158784441,None
178,8.882,1.096221923828125,-1.5294952392578125,0.20928955078125,0.8594488026478695,-0.5750902469336246,0.027494062076972692,-1.0173829793930054,-0.10872621089220047,1.7114300727844238,0.18711614199295357,-0.8933193814132452,-0.23677312118025554,None
179,8.932,1.3801727294921875,-1.4543609619140625,-0.7429351806640625,1.2519727555712221,-0.48439369215780403,-0.9496433379492873,0.43483614921569824,0.010727212764322758,2.2097883224487305,0.2084280349005924,-0.893078200449695,-0.12819997392096538,None
180,8.982,1.0505523681640625,-1.3565673828125,-0.7877349853515625,1.0476550233795054,-0.3974446964765739,-1.070710740406578,1.5385816097259521,3.6927103996276855,2.5131282806396484,0.28297694279759256,-0.7953021284646414,-0.002897344784557028,None
181,9.031,0.9375,-1.3516998291015625,-0.5872955322265625,1.0578121610188687,-0.4032437593232745,-0.8804781845300251,0.2580437958240509,5.1829729080200195,2.4700334072113037,0.2953278815769805,-0.6133989646889666,0.12031216101886867,None
182,9.081,1.3237762451171875,-0.902618408203125,-0.664459228515625,1.4416864667835603,0.0020474513822020812,-1.0739428815804675,2.5048909187316895,-0.599005401134491,-0.04838324338197708,0.4123601706763126,-0.6367742545881314,0.11791022166637279,None
183,9.131,-0.2891845703125,0.1386871337890625,-1.77093505859375,-0.20290090125718813,1.0744874136459743,-2.112743432794967,-1.496817708015442,1.1770591735839844,-0.6358813643455505,0.3430878827020796,-0.590319385409178,0.08628366905531187,None
184,9.181,-0.6155853271484375,1.6041717529296875,-5.162628173828125,-0.2841524715154994,2.479296614719091,-5.5152026177191615,0.6557677388191223,5.232741832733154,5.028615474700928,0.3736961982517969,-0.3614451619514755,0.3314328556329381,None
185,9.231,-3.76361083984375,0.790069580078125,0.240753173828125,-3.1891483876007456,1.452291940910955,-0.24034394295386857,4.905852317810059,8.433709144592285,5.482508182525635,0.5877567925926592,0.05184482613127619,0.5744624522430044,None
186,9.281,-3.4460296630859375,-0.2440032958984375,1.9274444580078125,-2.795245522995806,0.2682197310477553,1.3669914504565743,4.0409369468688965,2.018611192703247,1.93338942527771,0.738154175114122,0.1522047573305081,0.6507841400901313,None
187,9.33,-2.2685699462890625,-0.00701904296875,0.912811279296875,-1.681272606668325,0.5592399124793986,0.33450977467391807,-0.6882175207138062,0.3444404602050781,-1.6180235147476196,0.7145070920193819,0.16920271358852315,0.5872973396207375,None
188,9.38,-1.7061004638671875,-0.26123046875,0.150909423828125,-1.1785965794479663,0.33898832924530364,-0.4503201882633835,-0.19359663128852844,-0.5197507739067078,-1.4411169290542603,0.7077014405755885,0.14353563252675924,0.5275038844192211,Hook
189,9.43,-1.3634185791015625,-0.4052886962890625,-0.0828857421875,-0.9249025852045254,0.2633342161839205,-0.6834247700721493,-1.0886943340301514,-1.4263213872909546,-2.034259080886841,0.6682134211454819,0.07265298611614757,0.43851599389703705,None
190,9.48,-1.4516754150390625,-0.6515655517578125,-0.7836456298828125,-1.089512183076272,0.03924777447851435,-1.4094369223346717,0.08494658023118973,-2.3891217708587646,-1.6671828031539917,0.671367268266032,-0.04672201885628339,0.3621632319627905,None
191,9.53,-1.1698150634765625,-0.7248077392578125,-0.3528289794921875,-0.9217259715312015,-0.008002386574875286,-1.0044745033951883,0.03532470017671585,-1.1278079748153687,-2.397608995437622,0.672675220985516,-0.10294672151575938,0.248089091945361,None
192,9.58,-0.7376861572265625,-0.6089630126953125,-0.4589996337890625,-0.04240447646293011,-0.03500507293740973,-0.026384715202842135,0.5603219270706177,-1.6436809301376343,-2.8809072971343994,-0.6019096072132849,-0.18425465478961045,0.6952816807636324,None
193,9.63,-0.1702728271484375,-0.5644989013671875,0.0167083740234375,0.11839526034450187,0.3925112157401962,-0.011617780273969543,2.16261625289917,-2.423923969268799,-2.404118537902832,0.029585637596598716,-0.30173283412607826,0.2886680874929394,None
194,9.679,0.1851959228515625,-0.568145751953125,0.286041259765625,-0.09434494068365495,0.2894322749785948,-0.14571889742570676,1.9982306957244873,-3.6452105045318604,-1.7564290761947632,0.44968749056883406,-0.4695404423689842,-0.27954086353521745,None
195,9.729,0.6780548095703125,-0.5682830810546875,-0.0172576904296875,-0.08821800306463512,0.07393620379720056,0.002245303721360486,0.5428802967071533,-4.216772079467773,-1.116495966911316,-0.0303541294578003,-0.643918437121238,-0.7662728126349476,None
196,9.779,0.9388580322265625,-0.7109375,-0.09881591796875,0.15091857732975433,-0.0951991948698534,-0.09460224826464392,0.4703123867511749,-4.1778082847595215,-0.6887086033821106,-0.006843119890985715,-0.7885817543987728,-0.7879394548968082,None
197,9.829,0.930816650390625,-0.641387939453125,-0.3047943115234375,0.14275103388213028,-0.02595648834230624,-0.3188197548575344,0.592576801776886,-2.6018288135528564,-0.004098338540643454,0.022783695170462272,-0.8616899355759762,-0.7880656165084947,None
198,9.879,0.943756103515625,-0.67071533203125,0.224090576171875,0.16547895211641284,-0.0443968712942423,0.17925909894935774,0.9734364748001099,-1.0599671602249146,0.314858615398407,0.07139669366794611,-0.8873606932921593,-0.7782771513992122,None
199,9.929,0.718536376953125,-0.5855255126953125,0.5605010986328125,0.055183006285916325,-0.04496788065851487,0.04304602611808406,0.294270783662796,-0.5830191969871521,0.8089732527732849,0.6915016999310404,-0.9004225919568726,-0.6633533706672087,None
200,9.979,0.607330322265625,-0.8298492431640625,0.74029541015625,-0.030945668921663838,-0.25713076125455425,0.22590518906612056,-0.6354150772094727,0.09199889749288559,0.6606908440589905,0.6682062027623744,-0.8984120219224073,-0.6382759911872888,None
201,10.028,0.61444091796875,-1.093170166015625,0.42742919921875,-0.03331687477326528,-0.5031341564028845,-0.054512030914413145,-0.9378806352615356,-1.8116682767868042,-0.2476193904876709,0.6325963733356371,-0.9344542952129931,-0.6477577927420153,None
202,10.078,0.697906494140625,-1.1573486328125,-0.0660552978515625,0.0272683601449758,-0.5862826479171696,-0.5394770275243352,0.14565466344356537,-1.764087438583374,-0.6086220741271973,0.6382198908780152,-0.9621889945279315,-0.6706381339956492,None
203,10.128,0.83251953125,-0.985443115234375,0.1162872314453125,0.14427269782578267,-0.4391163555574652,-0.3610421809550399,0.5182666182518005,-0.2786444127559662,-0.48001959919929504,0.6579528723504812,-0.9658903855357472,-0.6882468334242173,None
204,10.178,0.59332275390625,-0.78594970703125,0.346466064453125,0.02496723750305141,-0.0330730498227334,0.014579418134561373,0.8932652473449707,0.43200308084487915,-0.0968269407749176,0.40337076913216574,-0.9600721156691358,-0.5683555164031986,None
205,10.228,0.5343780517578125,-0.7494049072265625,0.4803009033203125,0.01966151120159143,-0.02757305044526881,0.01767183655785115,0.023390809074044228,0.06197255849838257,-0.09152565896511078,0.53959695146095,-0.9592006586918669,-0.5147165405562211,None
206,10.278,0.4281463623046875,-0.6683502197265625,0.134307861328125,-0.10370634804877854,0.1618889394092643,-0.03253228110500614,0.27772483229637146,-0.525936484336853,-0.05031856521964073,0.19701567936981149,-0.9663029671228924,-0.531852710353466,None
207,10.327,0.521728515625,-0.534515380859375,0.1673736572265625,-0.15986419853858147,0.16378225534647017,-0.051285399911374124,-0.22026179730892181,-0.21115005016326904,0.3312133550643921,0.2988240614872041,-0.9689666440572707,-0.6815927141635815,None
208,10.377,0.3303985595703125,-0.46258544921875,0.5254974365234375,-0.09639458351696184,0.13496043014363912,-0.15331515548610564,-2.4336326122283936,1.4779574871063232,0.8596752882003784,0.7506088742692588,-0.9480718288112512,-0.42679314308727434,None
209,10.427,0.1341400146484375,-0.79595947265625,0.74713134765625,0.012181961088311877,-0.0722852710966555,0.06785093194495562,-5.194879055023193,2.7736823558807373,2.271644115447998,0.6843892063575817,-0.8950010666502772,-0.12195805356012562,None
210,10.477,0.2327423095703125,-1.706298828125,0.4456329345703125,0.24816938806956285,-0.9244312432027777,-0.17762069349523635,-1.6154881715774536,-0.9288429617881775,2.7538022994995117,0.6233278068524505,-0.914744762301853,0.015427078499250353,None
211,10.527,1.6319122314453125,-2.2740020751953125,0.0882568359375,1.7831441617625803,-1.473346396868479,-0.4914667085347866,-0.9259763360023499,0.0014559502014890313,2.7277345657348633,0.5864689299666492,-0.9147153473397859,0.15123193031726767,None
212,10.577,2.972808837890625,-1.449432373046875,-1.181793212890625,3.256674601883879,-0.7033684625335154,-1.7841293893419818,1.0503076314926147,2.346644639968872,2.7201781272888184,0.628176840098822,-0.861121093564726,0.2838657639932539,None
213,10.627,2.422271728515625,-0.6532745361328125,-1.4224395751953125,2.812517408196278,0.006640634506645204,-2.0644834031778583,1.8492943048477173,4.679710388183594,2.2615017890930176,0.6973349868792228,-0.7197798867591972,0.39024567968065293,None
214,10.676,0.88726806640625,0.3430328369140625,-3.4460601806640625,1.3390509809628615,0.8863839672155952,-4.153634733142302,2.8852131366729736,4.730462074279785,1.3572882413864136,0.7931312862792634,-0.5370719427328092,0.4517829145566115,None
215,10.726,-1.5275726318359375,1.39080810546875,-3.1501007080078125,-1.0128629482601768,1.8913054864443255,-3.846215866059934,0.6301582455635071,7.874739170074463,1.4381234645843506,0.8119243701407715,-0.1723601036432191,0.5147096835757609,None
216,10.776,-4.5271453857421875,0.00323486328125,-0.6320037841796875,-3.8088528883773307,0.27834476385185314,-1.27104246128569,4.336606502532959,4.925987243652344,5.21351957321167,0.9185004860104905,0.07300921441395188,0.7182924973648568,None
217,10.826,-2.4383697509765625,-0.1018829345703125,0.9788665771484375,-1.7674800623759839,0.24595366228862198,0.3239492330392638,-1.634079098701477,2.095113515853882,-1.3187416791915894,0.8831650167315287,0.17689412124074474,0.6708896886005786,Hook
218,10.876,-1.42791748046875,-0.5922088623046875,-0.05438232421875,-0.7512236122466007,-0.248032580694173,-0.7052495118133502,0.03620674088597298,-1.3403868675231934,0.1571001410484314,0.8840127301346042,0.11058392934489329,0.6766938682221493,None
219,10.926,-0.987640380859375,-0.614776611328125,-0.46417236328125,-0.3372315071801648,-0.21904735313058027,-1.1125292489898557,-1.2316347360610962,-1.2291779518127441,-0.7028060555458069,0.8535680533683463,0.04933163509599302,0.6504088736792102,None
220,10.976,-1.054901123046875,-0.931396484375,-0.463653564453125,-0.4345607669264494,-0.5032535674501158,-1.1208228617087372,-0.5885127782821655,-1.7440320253372192,-0.7789205312728882,0.8378705441288206,-0.0378408984649566,0.6203403561204256,None
221,11.025,-1.1764984130859375,-1.04498291015625,-0.467315673828125,-0.6103167485689397,-0.592062663535559,-1.1560112328132357,-0.08615992218255997,-1.9372230768203735,-1.3462090492248535,0.835511174992648,-0.1343040231715929,0.5661816645169978,None
222,11.075,-0.9781341552734375,-0.911041259765625,-0.64971923828125,-0.5033085637475283,-0.43479813433816755,-1.389809194377911,0.19892455637454987,-2.5204930305480957,-2.142005443572998,0.8409349458823139,-0.2577914945896009,0.47482559152590914,None
223,11.125,-0.526702880859375,-0.6221160888671875,-0.447021484375,0.039849842348327225,0.047068715521862425,0.03382122317157982,1.3371436595916748,-2.922041177749634,-2.732506036758423,-0.5835289224512005,-0.3957072199339584,0.5665527232077022,None
224,11.175,-0.3244781494140625,-0.708099365234375,-0.27374267578125,0.06853984554173814,0.14957254042839874,0.05782294046643699,2.161214590072632,-3.5141663551330566,-2.1052117347717285,-0.36058131321505044,-0.5501518901277623,0.39301799495580064,None
225,11.225,0.1666412353515625,-0.7185821533203125,0.25714111328125,-0.04667709120279237,0.20127866092968594,-0.07202658556445918,1.0838942527770996,-2.6741604804992676,-1.8124265670776367,0.3369227340321145,-0.6565638944441298,-0.21331832655435487,None
226,11.275,0.345458984375,-0.744110107421875,0.068450927734375,-0.07417340762950991,0.15976768535603714,-0.014697080681359567,-0.014054832980036736,-2.0366933345794678,-0.8206562995910645,0.09160355295945982,-0.7298406394944024,-0.4196323920045099,None
227,11.324,0.457183837890625,-0.746063232421875,0.099822998046875,-0.0619438558142672,0.10108413611183442,-0.013525021852244301,0.4864029288291931,-2.179828405380249,-0.34455153346061707,0.13261782896859578,-0.7998709876719947,-0.5191276937048922,None
228,11.374,0.5058746337890625,-0.794952392578125,0.1528778076171875,-0.024068024965103074,0.0378214932172638,-0.007273475767663906,0.8195444345474243,-2.3449103832244873,-0.04204865172505379,0.18885019010780946,-0.8645859327094297,-0.5299426587541656,None
229,11.424,0.681671142578125,-0.8799285888671875,0.257659912109375,0.16856294013388762,-0.03848107164725989,0.08829035065023033,0.17276644706726074,-2.0178935527801514,0.3946162760257721,0.19732592219041659,-0.910801125637779,-0.5131082024442374,None
230,11.474,0.65496826171875,-0.9200286865234375,0.3718109130859375,0.15047633869129307,-0.07773520555628721,0.1819962889910079,0.4604474902153015,-1.7064249515533447,0.20017437636852264,0.2198413437280073,-0.9426697110890573,-0.5044919230274569,None
231,11.524,0.56243896484375,-0.87298583984375,0.1295013427734375,0.025003636331272783,-0.038809225224763155,0.00575707709016593,-0.025897908955812454,-1.6789028644561768,0.02334526926279068,0.1467372664688542,-0.9673321479805225,-0.5374353285124772,None
232,11.574,0.3743438720703125,-0.8543853759765625,0.0650177001953125,-0.025998718131579446,0.05933828819718456,-0.004515572410983826,0.03227032348513603,-1.2717877626419067,-0.3410015404224396,0.07587940538754998,-0.9814868834096707,-0.40034259020189195,None
233,11.624,0.5948333740234375,-0.6306915283203125,0.1902313232421875,-0.07534600280862169,0.07988806233714074,-0.024096108996616072,-0.5700914263725281,-0.7633748650550842,-0.24708808958530426,0.2887734746820088,-0.9880806894189608,-0.6701793768320592,None
234,11.673,0.5029296875,-0.7313079833984375,0.2104339599609375,-0.04843282456315001,0.07042597035309739,-0.020265081418398334,-0.7561614513397217,0.032402947545051575,0.3649830222129822,0.2765294331821057,-0.9878299923627978,-0.55136251206315,None
235,11.723,0.5251922607421875,-0.8224945068359375,0.3863067626953125,0.024795116399651373,-0.03883120251286809,0.01823812318457768,-0.5774306058883667,-0.5399375557899475,0.6124048233032227,0.4251216722655796,-0.9916685496270479,-0.5003971443425361,None
236,11.773,0.335418701171875,-0.837646484375,0.24560546875,-0.023265695978967937,0.05810179448919239,-0.017035967722567158,-1.3047739267349243,-0.5916990041732788,0.8418025970458984,0.28136368799455846,-0.9950450432824349,-0.35868439715084294,None
237,11.823,0.3618621826171875,-0.6858978271484375,0.15948486328125,-0.09519065509251257,0.18043074581756402,-0.0419537308465929,-4.060004234313965,1.1827577352523804,-0.33579638600349426,0.22647811798487902,-0.9874292029085837,-0.45705283770970007,None
238,11.873,0.487457275390625,-0.7275543212890625,-0.3845672607421875,-0.02218276528341412,0.0331088847266785,0.017500539455264474,-2.3134918212890625,0.9139537215232849,0.592881977558136,-0.46731001709214764,-0.9791778186104949,-0.5096400406740391,None
239,11.923,-0.153228759765625,-1.8321075439453125,0.347808837890625,-0.5759820634474075,-1.0254761444507743,0.7608771489187418,0.25944969058036804,-0.8059260845184326,1.9657009840011597,-0.4558021291194584,-0.9865610502445441,-0.4227533036817826,None
240,11.973,0.4964447021484375,-2.5897064208984375,-0.0239715576171875,0.11616824498247674,-1.774996770697089,0.4137932216811267,-0.39575105905532837,-0.4482795298099518,0.9277225732803345,-0.47332427616633577,-0.9899752249296566,-0.38027645716596076,None
241,12.022,1.5417327880859375,-2.2428436279296875,-0.500213623046875,1.1988364983491693,-1.3795385206738784,-0.12990776801512682,1.7571570873260498,-0.14390763640403748,0.801936149597168,-0.39420523033501925,-0.9909658728082906,-0.34289628973676817,None
242,12.072,1.9058685302734375,-0.9111175537109375,-0.8654937744140625,1.6655297213656184,0.04301264071196187,-0.6869641437549163,4.404587268829346,1.1936298608779907,2.145670175552368,-0.18392051324487896,-0.981202156107797,-0.24033880890781914,None
243,12.122,1.52056884765625,-0.388427734375,-2.468048095703125,1.3377494584046188,0.5890003970928787,-2.362164580797019,1.5413124561309814,0.5036988258361816,1.1772292852401733,-0.10769861179204623,-0.9760312488762192,-0.18281938925163121,None
244,12.172,0.29901123046875,0.387115478515625,-2.044769287109375,0.2934263523564566,1.3865320162342685,-2.0784648843136053,2.8322081565856934,6.893173694610596,3.5653700828552246,0.03369612271391074,-0.8450996825656613,-0.005584878112293436,None
245,12.222,-1.000244140625,1.247039794921875,-3.51922607421875,-0.882591959130543,2.2234529418601694,-3.700265657392299,2.9925692081451416,3.6944496631622314,2.4702043533325195,0.18230572108296633,-0.732528629122519,0.11765218149445704,None
246,12.272,-3.4837646484375,0.8509063720703125,-0.9803314208984375,-3.1263052750545777,1.7238332846744993,-1.3123275076705725,3.602003335952759,8.84195327758789,4.952415943145752,0.3554833368287354,-0.3708568099436794,0.3574593733829224,None
247,12.322,-3.1602630615234375,0.4441375732421875,2.17462158203125,-2.8030618858588006,1.2994367279667456,1.7992941569325,1.001833200454712,3.256016969680786,-0.005528988782316446,0.4018376717972525,-0.21542849130441566,0.357201175664637,None
248,12.371,-2.100677490234375,0.19189453125,0.4070892333984375,-1.8182596049412185,1.0716319391001474,0.024594486642818547,-0.0679047480225563,-1.794548749923706,-1.5791198015213013,0.39872630569566136,-0.3020649420857515,0.2824178852931565,None
249,12.421,-1.5834808349609375,-0.195159912109375,-0.3322906494140625,-1.409670141215523,0.7373586021466111,-0.648833005678664,-1.6576629877090454,-0.7015003561973572,-2.232314348220825,0.3214348899764079,-0.3353088676542806,0.17381069374541455,Hook
250,12.471,-1.38800048828125,-0.6666107177734375,-0.5821075439453125,-1.327104725734596,0.28344251695719447,-0.8881966768489884,-0.31128543615341187,-1.618074655532837,-2.27528977394104,0.3066582504667211,-0.4103490514327197,0.06089576254665403,None
251,12.521,-0.801239013671875,-0.6912841796875,-0.1183319091796875,-0.048780900536070204,-0.042086648598098186,-0.007204263638492275,-0.07861758023500443,-1.3715479373931885,-2.321998119354248,-0.1687228650209408,-0.4718732016305676,0.7524581131358048,None
252,12.571,-0.621490478515625,-0.8654327392578125,-0.0638427734375,-0.039232559422587965,-0.05463179653255401,-0.004030175021461066,-0.49322250485420227,-2.390000104904175,-2.3922622203826904,-0.07356985800851765,-0.5736165372381784,0.582257919093037,None
253,12.621,-0.44091796875,-0.87432861328125,-0.0175323486328125,0.009287517257563827,0.018416899877436554,0.00036930223314418295,0.00048389637959189713,-2.9125101566314697,-2.6056430339813232,-0.020048325740405257,-0.6864091763472987,0.4502054860075638,None
254,12.67,-0.3228759765625,-0.7880096435546875,0.030548095703125,0.05602451553005994,0.1367331784271686,-0.005300618151757197,-0.8520341515541077,-2.5975773334503174,-2.7843801975250244,0.038737048131166955,-0.7748125721632563,0.37890049209255994,None
255,12.72,0.21343994140625,-0.586578369140625,-0.0550537109375,-0.12717713753211735,0.3495098313561378,0.03280348242893032,-0.42051953077316284,-3.153752326965332,-2.8784830570220947,-0.09344500776692777,-0.8644755845601145,-0.34061707893836735,None
256,12.77,0.28662109375,-0.6200408935546875,-0.1285400390625,-0.12574071607585463,0.27201203139599417,0.0563905340834219,0.04270805045962334,-3.307689666748047,-1.8188716173171997,-0.20299284320104083,-0.9354360759027734,-0.41236180982585463,None
257,12.82,0.7389068603515625,-0.7696685791015625,0.04241943359375,0.04690952535453008,-0.04886243404043056,0.0026929990807554247,0.19148527085781097,-3.0005669593811035,-1.0930007696151733,0.055030380283170144,-0.9777638487379545,-0.6919973349970324,None
258,12.87,0.93408203125,-0.935516357421875,-0.1356048583984375,0.2375660717453757,-0.2196286092047569,-0.18429007286830024,0.256880521774292,-2.315627098083496,-0.12556564807891846,0.06785005187152728,-0.9954437252911087,-0.6965159595046243,None
259,12.92,0.9342193603515625,-1.2178955078125,0.0346527099609375,0.2615392325570517,-0.4819341511270814,-0.04191312534514713,0.715199887752533,-1.366593599319458,0.6541096568107605,0.1034766570347549,-0.9996310194016044,-0.6726801277945108,None
260,12.97,0.53466796875,-1.2028656005859375,-0.1319732666015625,-0.11978165256555595,-0.454765288349276,-0.24170756384419767,0.8396614193916321,-0.14796283841133118,0.4874098598957062,0.14513091269449394,-0.9998046167887121,-0.654449621315556,None
261,13.019,0.462188720703125,-0.91009521484375,0.03070068359375,0.009591689951723437,-0.01888698433412328,0.0006371238092728049,1.1640408039093018,-0.19011294841766357,0.19902761280536652,0.033714308235095795,-0.9999473411399553,-0.45259703075140156,None
262,13.069,0.3323516845703125,-0.712554931640625,0.2109527587890625,-0.07591281188759424,0.16275545151861148,-0.048183950431384404,1.1345771551132202,-0.10709476470947266,-0.08074171841144562,0.2838722960316324,-0.9999879570240099,-0.40826449645790674,None
263,13.119,0.2680206298828125,-0.729705810546875,0.3654937744140625,-0.043991889722610755,0.11977114433900904,-0.05999076199975484,0.6641974449157715,-1.0065749883651733,-0.33516308665275574,0.4478416938062128,-0.998968643692275,-0.31201251960542326,None
264,13.169,0.279022216796875,-0.702301025390625,0.1704864501953125,-0.0811501706501428,0.2042555919470347,-0.04958388147621379,-0.13581642508506775,-0.36602991819381714,-0.3113134205341339,0.23590276519308745,-0.9979704086433662,-0.3601723874470178,None
265,13.219,0.3839874267578125,-0.8555145263671875,0.254425048828125,-0.011207888700180246,0.024970899890840892,-0.007426200524013438,-0.632044792175293,0.433292031288147,-0.2742091715335846,0.28505559686396637,-0.99911569710704,-0.39519531545799275,None
266,13.269,0.422882080078125,-0.9455108642578125,0.1518707275390625,0.018923499875405758,-0.04231055314207677,0.006796045112936133,-0.964156448841095,0.2392842173576355,-0.01441169623285532,0.1585901685179667,-0.9995472192675573,-0.40395858020271924,None
267,13.319,0.2852020263671875,-1.0226898193359375,0.06854248046875,0.017135678727333792,-0.06144586139543595,0.004118210306734912,-0.501794159412384,0.450438529253006,0.30549946427345276,0.06687174574886193,-0.9999713343817018,-0.2680663476398537,None
268,13.368,0.22967529296875,-1.03057861328125,0.314056396484375,-0.03906848459200024,-0.06865826424891697,0.26419635095799643,-0.30268344283103943,0.46043524146080017,-0.014064686372876167,0.051764368565725444,-0.9998806510522932,-0.26874377756075024,None
269,13.418,0.1988983154296875,-1.0038299560546875,0.22479248046875,0.009063413274538357,-0.04574259831929861,0.010243360518641609,-0.24380813539028168,-0.2696807384490967,-0.05540546774864197,0.21852273150544596,-0.9999980674860736,-0.18983490215514914,None
270,13.468,0.243011474609375,-0.9123077392578125,0.164154052734375,-0.010579003152339561,0.03971543510456044,-0.007146107994026735,-0.3037913143634796,-0.06377098709344864,-0.24704094231128693,0.1770889009164571,-0.999999252647173,-0.25359047776171456,None
271,13.518,0.2249755859375,-0.9489288330078125,0.11968994140625,-0.003995412969087009,0.016852328888670054,-0.002125611728806223,-0.19325999915599823,-0.031625304371118546,0.13004028797149658,0.12514012009854691,-0.9999960692240024,-0.228970998906587,None
272,13.568,0.369842529296875,-0.95062255859375,0.162261962890625,0.01176569584301973,-0.03024188674891215,0.0051619939596773134,-0.2830016016960144,-0.22566747665405273,0.14485464990139008,0.16825671438125553,-0.9999007767476694,-0.35807683345385527,None
273,13.618,0.4158782958984375,-0.9952392578125,0.06488037109375,0.031014507928050106,-0.07422088662994453,0.004838513583198326,-0.2971760332584381,-0.09524289518594742,0.3365527093410492,0.06505264252718429,-0.9998223559710757,-0.3848637879703874,None
274,13.667,0.3353271484375,-0.9697723388671875,-0.08660888671875,0.009690646219063292,-0.028025528779239584,-0.0025029171796234623,0.10962503403425217,-0.31585994362831116,0.1535208523273468,-0.0889544271375309,-0.9994000133629412,-0.3256365022184367,None
275,13.717,0.3776397705078125,-0.763641357421875,0.05621337890625,-0.0646815083688409,0.13079521466835087,-0.009628133533913036,0.13231515884399414,0.19856423139572144,0.02214258722960949,0.07341363971930641,-0.9996946209129023,-0.4423212788766534,None
276,13.767,0.2924957275390625,-0.5795745849609375,0.296966552734375,-0.11722099491415561,0.23227111742002016,-0.11901272904268906,0.03838547319173813,0.012925651855766773,0.29314932227134705,0.4560112268357241,-0.9997103828346939,-0.4097167224532181,None
277,13.817,0.20281982421875,-0.4225006103515625,0.52130126953125,-0.0865104374074539,0.180212722041453,-0.22235499425129823,-0.20961740612983704,-0.7291322350502014,1.1423224210739136,0.7768841139974967,-0.998168952709625,-0.2893302616262039,None
278,13.867,-0.341339111328125,-0.94287109375,0.7784576416015625,-0.5287939306273849,-0.4056891814654525,-0.04391470948752818,2.04931640625,-2.621145248413086,2.0991342067718506,0.8372134445225251,-0.9817042806335374,-0.18745481929925986,None
279,13.917,-0.2524566650390625,-1.8319091796875,0.9142303466796875,-0.3363087501419894,-1.2933053173756828,0.07585411411659504,0.15176929533481598,-2.4371554851531982,2.0923945903778076,0.8413392506883658,-0.951278684443097,-0.0838520851029269,None
280,13.967,1.0606536865234375,-2.5026092529296875,-0.33514404296875,1.0460184695357906,-2.0147901899113316,-1.2079661165780382,1.2278120517730713,-2.2453079223632812,1.386298418045044,0.8729155633230031,-0.9107478563471332,-0.014635216987646882,None
281,14.016,1.159759521484375,-2.702728271484375,-0.780914306640625,1.1879147831182657,-2.589925980250364,-1.7741327742169606,7.931231498718262,-2.802136182785034,0.8558944463729858,0.9936123732389756,-0.844153713348794,0.028155261633890684,None
282,14.066,0.521636962890625,-2.7008514404296875,-0.8864288330078125,0.4090580440422966,-2.9005301316840324,-1.8598015300205724,6.308437347412109,-0.9505359530448914,-2.8195414543151855,0.9796002248521276,-0.8177309242633134,-0.11257891884832838,None
283,14.116,-0.45965576171875,-1.6192626953125,-2.0411834716796875,-0.8180082769736521,-2.05093643847804,-2.8689764737471948,5.566921234130859,3.3474161624908447,-5.073690414428711,0.8866807030364796,-0.9021936837129796,-0.3583525152549021,None
284,14.166,-2.2080230712890625,-1.1041717529296875,-0.92486572265625,-2.8110299246379427,-1.6979514510173674,-1.457602435257499,7.177052021026611,2.1476385593414307,-5.61524772644043,0.6678107905179702,-0.9432253454920531,-0.6030068533488803,None
285,14.216,-2.9834442138671875,0.414215087890625,-1.2964324951171875,-3.769253730460405,-0.14648495031136255,-1.5574284161424468,5.912191867828369,6.073757648468018,-5.13477897644043,0.4220035146816707,-0.9993911300401234,-0.7858095165932176,None
286,14.266,-1.47894287109375,2.78729248046875,1.436737060546875,-2.3817703315856362,2.390765398588986,1.270397498452675,0.7691768407821655,2.6014950275421143,-4.445925712585449,0.386833495663469,-0.9954741016887674,-0.9028274604918862,None
287,14.316,-1.245330810546875,1.7012481689453125,0.487213134765625,-2.1481351946187224,1.3070643435469573,0.31527315717178106,-0.28234168887138367,0.747331976890564,0.0010732539230957627,0.39981258096460526,-0.9912289689770578,-0.9028043840718473,Hook
288,14.365,-1.5093994140625,0.6220855712890625,1.0519256591796875,-2.398398224015087,0.20262845437804178,0.8682497408463958,-0.028501149266958237,-1.1285083293914795,0.6218499541282654,0.40111837782623566,-0.9971044210428592,-0.8889988099525872,None
289,14.415,-1.096771240234375,0.3667449951171875,0.8717803955078125,-1.9801661464195481,-0.04265642995808777,0.6437367311090338,-1.909547209739685,-1.483437180519104,0.24192555248737335,0.48661843077690453,-0.9999981062050645,-0.8833949061851732,None
290,14.465,-0.8444061279296875,0.2458953857421875,0.8092193603515625,-1.7016834909837744,-0.19623278014376638,0.5454046380077296,-0.5953890681266785,-1.925907015800476,1.0619959831237793,0.512406009665416,-0.9955524171148497,-0.8572773630540869,None
291,14.515,-0.873504638671875,-0.035888671875,1.218841552734375,-1.6955922107089347,-0.5119175853009179,0.9064819883142152,-0.8544318079948425,-1.9677886962890625,1.2978020906448364,0.5486141973310402,-0.9814833419851224,-0.8220875720370598,None
292,14.565,-0.47406005859375,0.0655517578125,0.9273223876953125,-1.2572490471819444,-0.42440465824867224,0.5444938118095872,-1.6512138843536377,-2.5217387676239014,1.3057947158813477,0.6156941019687964,-0.9496042058685316,-0.7831889885881944,None
293,14.615,-0.2192840576171875,0.1016998291015625,1.1202850341796875,-0.9550209790943502,-0.38810427358389005,0.6525424518036482,-1.9819217920303345,-2.8436920642852783,1.4604806900024414,0.6906320254509248,-0.8956035845825413,-0.7357369214771627,None
294,14.665,-0.1009063720703125,0.18048095703125,1.1678924560546875,-0.7718674694231966,-0.2531774031236027,0.5664345335806231,-3.6748902797698975,-3.1302754878997803,1.8249984979629517,0.811144926827879,-0.8153146450802814,-0.6709610973528841,None
295,14.714,-0.1859130859375,-0.172393798828125,0.554779052734375,-0.7907487677035797,-0.4594418690799706,-0.1880380199202949,-5.11868143081665,-3.453472375869751,1.7188936471939087,0.9327767867619958,-0.7037049737996444,-0.6048356817660797,None
296,14.764,-0.1746063232421875,-0.52569580078125,-0.1233367919921875,0.13307041979376677,0.40064162393907676,0.09399704650817212,-4.7178850173950195,-3.139622688293457,0.9026328921318054,-0.22841398463852391,-0.583975675693975,0.30767674303595427,None
297,14.814,0.416961669921875,-0.5874481201171875,-0.1539306640625,-0.14906570977440925,0.21001539781179035,0.055030918546594476,-4.7178850173950195,-3.139622688293457,0.9026328921318054,-0.253475278112563,-0.449884949158301,-0.5660273796962842,None
298,14.864,0.7098541259765625,-0.6050567626953125,-0.4979095458984375,0.03847545620761972,-0.032795237957067624,-0.026987653135376377,-4.474833011627197,-2.399930477142334,0.5382011532783508,-0.635423947957895,-0.33973957341712896,-0.6713786697689428,None
299,14.914,0.8841705322265625,-0.6509246826171875,-0.191558837890625,0.2280812312624586,-0.1726292697561052,0.3922050931606865,-3.9164376258850098,-0.855510413646698,0.4088476896286011,-0.7735217657476251,-0.299209856649753,-0.6560893009641039,None
300,14.964,0.5847625732421875,-0.93182373046875,-0.2264862060546875,-0.02619389271093775,-0.525681554189025,0.45305829532608044,-2.9542758464813232,-0.3738148808479309,1.1671380996704102,-0.8583746823204813,-0.2813241618131975,-0.6109564659531252,None
301,15.013,0.3893280029296875,-1.116912841796875,-0.1219482421875,-0.165429580715182,-0.7576082054645883,0.6284811027202193,-1.8432000875473022,-0.7268991470336914,1.3839324712753296,-0.9019453024280026,-0.2462689657634737,-0.5547575836448695,None
302,15.063,0.3445892333984375,-1.0950927734375,-0.486114501953125,-0.16404186043416735,-0.8197479895357873,0.32965486518734755,-2.4204492568969727,-0.6302410364151001,1.0895493030548096,-0.947484317646113,-0.21561022791342901,-0.5086310938326049,None
303,15.113,0.386627197265625,-1.07940673828125,-0.4734649658203125,-0.10945239739106732,-0.9084704368307385,0.37781983764540883,-2.5471596717834473,-0.5698112845420837,0.29032689332962036,-0.9804299253884203,-0.18770603850817938,-0.4960795946566923,None
304,15.163,0.3609619140625,-0.9634246826171875,-0.4530181884765625,-0.1215676812077564,-0.8375509994308675,0.413769562688296,-1.0790455341339111,-0.6993218660354614,0.31074562668800354,-0.989619675623816,-0.15325372115146782,-0.4825295952702564,None
305,15.213,0.3982391357421875,-0.84796142578125,-0.58746337890625,-0.07552098372506333,-0.795397676040545,0.29162046317911827,-1.6897562742233276,-0.1323031783103943,0.19969792664051056,-0.9982171309648126,-0.14671340241763411,-0.47376011946725083,None
306,15.263,0.2888336181640625,-0.87371826171875,-0.5172119140625,0.015216392023389813,-0.04602940500075536,-0.02724786433645837,-0.2493259310722351,-0.5718496441841125,0.4598272442817688,-0.5094035710933984,-0.11837420458455993,-0.2736172261406727,None
307,15.313,0.1729736328125,-0.9193115234375,-0.5953826904296875,-0.07123925885460616,-0.07981805723012114,-0.10998513817101502,0.2050708532333374,-0.7341983318328857,0.6088769435882568,-0.5005534898734091,-0.08185082732101763,-0.24421289166710616,None
308,15.362,0.0903778076171875,-0.9230804443359375,-0.60321044921875,-0.130843748473491,-0.08051136973033812,-0.11215202332720431,-0.06893086433410645,-0.5003696084022522,0.47282081842422485,-0.5035342028159007,-0.056893280348883274,-0.2212215560906785,None
309,15.412,0.0658416748046875,-0.9603118896484375,-0.459686279296875,0.004116942351860282,-0.06004629592452526,-0.028743222547425895,0.3591863811016083,-0.040175650268793106,0.1765044629573822,-0.4317663441603779,-0.05488763809041034,-0.06172473245282722,None
310,15.462,0.303863525390625,-0.9610748291015625,-0.713470458984375,0.22981016798397247,-0.05539471659522566,-0.2960262901817533,0.29108163714408875,-0.17601098120212555,-0.24714428186416626,-0.41859350910411974,-0.04609834345653184,-0.07405335740665252,None
311,15.512,0.689697265625,-1.1496124267578125,-0.6397857666015625,0.6186805590742236,-0.20226367927888933,-0.3275567192007858,2.2705109119415283,-0.7453628778457642,0.06089344248175621,-0.3130193818364009,-0.008846426743845885,-0.07101670655077642,None
312,15.562,0.65472412109375,-1.661956787109375,-0.4715576171875,0.6209366474049175,-0.6629029079843602,-0.4441759951211042,5.819396495819092,-0.9886063933372498,0.7456526160240173,-0.02739726480012034,0.04057263791277773,-0.03378747368883251,None
313,15.612,0.688385009765625,-1.6536102294921875,0.2281951904296875,0.7309184200926924,-0.7161100922277372,-0.11718054935972844,7.607463836669922,0.5393977165222168,1.5268030166625977,0.3456885723806399,0.013613471182243618,0.04253341032706736,None
314,15.662,0.2673187255859375,-1.993804931640625,0.7855224609375,0.3462080589584665,-1.3238339302636564,0.04733865564644657,9.616581916809082,0.7267550826072693,0.7285029292106628,0.7404916364241717,-0.022721906805492142,0.078889333372529,None
315,15.711,0.16680908203125,-2.05145263671875,0.01220703125,0.14410795071060944,-1.7328945141376464,-0.9354244272687459,8.254002571105957,-0.6624205708503723,-2.033489465713501,0.9478757297789543,0.010396978796079731,-0.022701131320640548,None
316,15.761,-1.1639862060546875,-1.5717620849609375,-2.182861328125,-1.4637385418880124,-1.4639083244974174,-3.1307622214236313,4.220003128051758,0.3650709092617035,-5.634599208831787,0.9935890458658649,-0.007856298524662197,-0.29975233583332483,None
317,15.811,-3.888916015625,-0.5365753173828125,-0.839569091796875,-4.428234102419735,-0.7607686609554032,-1.6512792284551585,7.655496120452881,1.8705649375915527,-5.303881645202637,0.9639093709726843,-0.10121102936653141,-0.5393180867947347,None
318,15.861,-1.4006805419921875,2.996734619140625,-0.5536041259765625,-2.190700202970059,2.6370471898764487,-1.0500856346933896,7.149645805358887,3.191331624984741,-6.824278831481934,0.8098132179152019,-0.25799967281961744,-0.7900196609778718,None
319,15.911,-1.09613037109375,2.33624267578125,0.7567291259765625,-2.000954160667882,2.0716716182849693,0.4231184766321412,0.8705636262893677,4.0262908935546875,-4.402492523193359,0.7835167728996093,-0.445977198568829,-0.904823789574132,None
320,15.961,-1.87750244140625,0.8320159912109375,1.1272735595703125,-2.783750216066864,0.555235455488508,0.8077309083202958,0.8664048314094543,1.0285508632659912,-0.06712684035301208,0.7558721895063059,-0.4913972132851616,-0.906247774660614,None
321,16.01,-1.7363433837890625,0.6065826416015625,0.9423828125,-2.620480378055089,0.33295681070982874,0.5636603811085599,-1.7629090547561646,-1.1738308668136597,0.9935668110847473,0.8105734880989979,-0.43946388753430515,-0.8841369942660268,Hook
322,16.06,-1.0802459716796875,0.88751220703125,0.85321044921875,-1.9601620800575363,0.6666495485043276,0.4325356005700558,-2.8440606594085693,-2.21663236618042,0.17916175723075867,0.8853906586033807,-0.33741559404539545,-0.8799161083778488,None
323,16.11,-0.89605712890625,0.485809326171875,0.7943572998046875,-1.758496745961876,0.3507712577271308,0.30654316818931737,-4.268050670623779,-2.9990322589874268,0.7123138308525085,0.9637548767729769,-0.1929998074412201,-0.8624396170556261,None
324,16.16,-0.6521453857421875,-0.000457763671875,0.7193603515625,-1.482755019726544,-0.020945469981295768,0.1628822389448049,-4.665198802947998,-3.208428382873535,1.1973668336868286,0.999322952282909,-0.03379066784861596,-0.8306096339843565,None
325,16.21,-0.30615234375,-0.580108642578125,0.4160003662109375,0.08800239374956542,0.16675014979919167,-0.1195778140348085,-5.290194988250732,-3.130510091781616,1.0788191556930542,0.5827556968703711,0.12242054042707276,0.3941547374995654,None
326,16.26,0.13934326171875,-0.7078704833984375,0.054290771484375,-0.05325421277523554,0.2705339668041997,-0.020748848998498395,-5.334688663482666,-3.604891538619995,-0.35384196043014526,0.07647132840088347,0.2983590927113116,-0.19259747449398554,None
327,16.31,0.36798095703125,-0.6474151611328125,-0.2751312255859375,-0.09553820044332617,0.16808717476405244,0.07143180014072031,-5.307523250579834,-3.5587258338928223,-1.3954646587371826,-0.39111629631665035,0.46258550386805275,-0.46351915747457617,None
328,16.359,0.3817138671875,-0.5127410888671875,0.1488037109375,-0.19988635813528555,0.26849941207307326,-0.07792180062900975,-3.7178890705108643,-1.9182161092758179,-1.915525197982788,0.2787124124280716,0.5453612837635354,-0.5816002253227855,None
329,16.409,0.4626312255859375,-0.4508514404296875,0.0033111572265625,-0.25352507534241786,0.24706967252028178,-0.0018145368036315609,-2.863638401031494,-2.232663631439209,-1.7833455801010132,0.007344033167251497,0.6353435031895431,-0.7161563009283554,None
330,16.459,0.9451751708984375,-0.5359344482421875,-0.089935302734375,0.17680051162028276,0.0973974242275949,0.0022119831350353447,-3.0365264415740967,-1.9789491891860962,-1.5603647232055664,-0.1439800668597293,0.7085213824490698,-0.7683746592781547,None
331,16.509,1.7198486328125,-0.5683746337890625,-0.604736328125,0.9054577510648818,-0.016876873015426508,-0.42413258622577366,-3.439797878265381,-1.129036784172058,-1.5076223611831665,-0.3112158183452085,0.7472090263601774,-0.8143908817476182,None
332,16.559,1.0529022216796875,-0.723663330078125,-0.41253662109375,0.21167867611046398,-0.22078538238023604,-0.21389947426792652,-1.1943422555923462,-0.17993700504302979,-0.9572681784629822,-0.3673788570158434,0.7531579137197977,-0.8412235455692235,None
333,16.609,0.7344818115234375,-0.775360107421875,-0.0050201416015625,0.0467792382927531,-0.049382782063113195,-0.0003197334454830532,1.6481167078018188,0.05016037076711655,0.9342246651649475,-0.006474457911543187,0.7515056723829381,-0.6877025732306844,None
334,16.659,0.5654754638671875,-0.6914215087890625,-0.2235565185546875,-0.0486627288084851,0.05950118002371585,0.01923844787428461,1.157953143119812,-0.7248578667640686,0.5610193610191345,-0.3076475245330347,0.7749173248772586,-0.6141381926756726,None
335,16.708,0.5385589599609375,-0.6383819580078125,-0.1192169189453125,-0.09978878612752384,0.11828484049347543,0.02208952503228065,0.8238068222999573,0.0340421237051487,0.4058087468147278,-0.1835749148035503,0.7738403651917194,-0.6383477460884613,None
336,16.758,0.56640625,-0.6149139404296875,0.0612640380859375,-0.10928239579701171,0.11864146735516645,-0.011820280687635049,1.0209057331085205,0.006743656471371651,0.35360947251319885,0.09913944033834753,0.7736267561189558,-0.6756886457970117,None
337,16.808,0.6524810791015625,-0.586181640625,0.156036376953125,-0.07991002925196422,0.07179026879033357,-0.01910993566873062,0.5206394791603088,0.17024070024490356,0.4203757047653198,0.25723363558201956,0.7682052157078135,-0.7323911083535267,None
338,16.858,0.4678497314453125,-0.7872161865234375,0.2373046875,-0.026708715108664016,0.0449407821392348,-0.013547305612013505,0.24164804816246033,0.12382367253303528,1.055919885635376,0.2886194752008948,0.7642268996177831,-0.4945584465539765,None
339,16.908,0.5307159423828125,-0.8033294677734375,0.214752197265625,-0.007280982500774247,0.01102101393629451,-0.0029462220096003466,-0.27281689643859863,0.003290868131443858,0.8887128233909607,0.25825878821013504,0.7641207674180724,-0.5379969248835867,None
340,16.958,0.4039764404296875,-0.917083740234375,-0.04638671875,0.001284807606782401,-0.002916695251476309,-0.00014752842774753971,-1.197343349456787,-0.10387473553419113,0.880771279335022,-0.050516100464417284,0.7674607868182238,-0.4026916328229051,None
341,17.008,0.4509124755859375,-0.8955535888671875,0.17724609375,0.00806487775108028,-0.016017587901886565,0.0031701675055511302,-0.6545599699020386,-0.4759249985218048,0.7832087874412537,0.19415182654670698,0.7824977436110694,-0.4428475978348572,None
342,17.057,0.487060546875,-0.99188232421875,0.1547698974609375,0.07982509779311353,-0.08705478854497728,0.030486271437226015,-1.1778154373168945,-0.08876502513885498,0.7869420051574707,0.13607847083376784,0.7852535200250973,-0.40723544908188647,None
343,17.107,0.9933929443359375,-1.24139404296875,0.4618988037109375,0.6317622083978485,-0.31224672935366726,0.38503216317844624,-1.0792356729507446,0.08566563576459885,0.9881736636161804,0.08244650368407283,0.7825942264842971,-0.3616307359380891,None
344,17.157,1.418243408203125,-1.6656036376953125,0.0428314208984375,1.1204127947924163,-0.7109888087388492,0.04556163184689341,-1.7080039978027344,1.217816948890686,1.351941704750061,-0.002860001436799,0.7432607740592946,-0.2978306134107087,None
345,17.207,2.1802215576171875,-1.0540924072265625,-1.966461181640625,1.9007284585408928,-0.09543972951206559,-1.912901391876723,-1.0590366125106812,-1.5397957563400269,0.38306403160095215,-0.05578286519143481,0.7925144889398034,-0.2794930990762947,None
346,17.257,1.7544708251953125,-0.288543701171875,-2.4095611572265625,1.529598997025043,0.6840061099083014,-2.3497320183118653,-0.11257101595401764,0.2761506140232086,1.1290926933288574,-0.06140173861874985,0.7840186468957648,-0.2248718281702694,None
347,17.307,0.350433349609375,0.5060882568359375,-3.3194732666015625,0.23106915810036818,1.4985794135889106,-3.346184566692467,1.7669456005096436,4.145383834838867,2.143240451812744,0.02690364670452013,0.6394974534687728,-0.11936419150900682,None
348,17.356,-1.774169921875,0.7652130126953125,-3.5574188232421875,-1.7187050933124164,1.7518829205328177,-3.710409495377624,2.53851318359375,7.335106372833252,3.5028555393218994,0.15322654270348704,0.32128781226782116,0.05546482856258359,None
349,17.406,-2.629058837890625,1.2357940673828125,-0.5507659912109375,-2.3697332085594143,2.1617185083255874,-0.8253823556846913,2.689786672592163,11.718240737915039,4.136611461639404,0.28434378083914247,-0.2559428848337696,0.2593256293312108,None
350,17.456,-3.351715087890625,-0.4514923095703125,1.54986572265625,-2.8263410406830265,0.36087454306958455,1.296800104184171,0.27333328127861023,8.190855026245117,5.816615581512451,0.297419355625971,-0.6197041596530516,0.5253740472075984,Hook
351,17.506,-2.1083984375,-0.300933837890625,-0.343353271484375,-1.5124391726455388,0.45981225847692864,-0.6004484513218408,0.47824913263320923,-1.4591879844665527,1.7061008214950562,0.3201624958533357,-0.56084518676544,0.5959592648544613,None
352,17.556,-1.6493988037109375,-0.6888427734375,-0.35992431640625,-1.054131155289634,0.08272676830309678,-0.5842831116454313,-0.8584417700767517,-2.7919623851776123,-0.01721999980509281,0.27921732374844216,-0.4401881294293316,0.5952676484213036,None
353,17.606,-1.13470458984375,-0.8127899169921875,-0.1311798095703125,-0.5842983335798363,0.002463481386253852,-0.3112210534505566,-1.3125346899032593,-1.5780349969863892,-1.0949589014053345,0.21564486400145716,-0.3680458129096263,0.5504062562639137,None
354,17.656,-0.8408966064453125,-0.787322998046875,-0.4719390869140625,-0.39881784285504257,0.10144743737178197,-0.5929906457979908,-1.6396797895431519,-2.359351873397827,-2.4987175464630127,0.13495514609336998,-0.25605491237351263,0.44207876359026993,None
355,17.705,-0.392333984375,-0.5885772705078125,-0.625579833984375,0.023142759175292626,0.0347186391439237,0.03690132392146239,-1.1545377969741821,-3.724252939224243,-3.345937967300415,-0.7283183698959587,-0.07266210005354129,0.4154767435502926,None
356,17.755,0.0572509765625,-0.6816864013671875,-0.5601959228515625,-0.007498591036006988,0.08928559555799909,0.07337307374864732,-1.6509172916412354,-3.2296111583709717,-3.349696636199951,-0.634901308430986,0.08863788668377531,-0.06474956759850699,None
357,17.805,0.583587646484375,-0.6502685546875,-0.59259033203125,0.03081175151804949,-0.03433231194616926,-0.03128706745685761,-1.2221909761428833,-2.3393702507019043,-3.4061100482940674,-0.6735666500470716,0.2042748483145388,-0.5527758949663255,None
358,17.855,0.4168243408203125,-0.96221923828125,-0.296112060546875,0.03428638690964647,-0.0791484994151006,-0.024357053277029028,-0.031259384006261826,-2.1294984817504883,-2.002537488937378,-0.29412632042634385,0.307150938711048,-0.38253795391066603,None
359,17.905,0.6795196533203125,-0.9623565673828125,-0.2121429443359375,0.22402121541250147,-0.09644991780183143,-0.005438209811098327,1.284237027168274,-2.439364194869995,-1.6078081130981445,-0.23219078900663523,0.4206539360265494,-0.455498437907811,None
360,17.955,0.5240478515625,-1.025543212890625,-0.4088287353515625,0.03647023181464981,-0.1684017265189267,-0.24276688825375242,0.8592222929000854,-2.4002885818481445,-0.7276208996772766,-0.19020240392047966,0.5262465797041033,-0.4875776197478502,None
361,18.005,0.451507568359375,-1.008575439453125,-0.03497314453125,-0.05187516269068704,-0.1469547771467593,0.029954972392934265,2.3230931758880615,-2.2635276317596436,-0.3639233708381653,-0.07514275609924095,0.618912040453461,-0.503382731050062,None
362,18.054,0.332061767578125,-1.040924072265625,0.169189453125,-0.168430352805371,-0.17552764114327057,0.14476294222548317,2.0686392784118652,-1.6799718141555786,0.06684241443872452,0.028214568004920663,0.6826298743595428,-0.500492120383496,None
363,18.104,0.5643463134765625,-0.8593597412109375,0.085968017578125,0.01733278307617403,-0.02639353819297141,0.002640337970830353,0.361636221408844,-1.2654856443405151,-0.7517986297607422,0.09954045400828573,0.7274715685228718,-0.5470135304003885,None
364,18.154,0.9120941162109375,-0.7589569091796875,-0.1128692626953125,0.32062062148248516,0.0470155049817117,-0.1366930458658624,-1.4031023979187012,-0.4796166718006134,-1.081850290298462,0.02954615033730767,0.743714981240211,-0.5914734947284523,None
365,18.204,0.8273773193359375,-0.7968902587890625,-0.18658447265625,0.21731177898497234,-0.004604154168503238,-0.17644717018147885,-0.8468950986862183,-0.1418074667453766,-0.46516528725624084,-0.012793955009536246,0.7484361392442025,-0.6100655403509652,None
366,18.254,0.714691162109375,-0.682525634765625,0.128814697265625,-0.002435941919530782,0.002326309450886299,-0.0004390499527026914,0.9736205339431763,-0.5875769257545471,-0.1759907454252243,0.18545829065252073,0.7675946184381903,-0.7171271040289058,None
367,18.304,0.4393768310546875,-0.60693359375,0.0406951904296875,-0.14615897354383234,0.2018968338836422,-0.013537280168133665,0.2685491740703583,-0.06991223990917206,0.1774623990058899,0.06690026733234013,0.7698303864753802,-0.5855358045985198,None
368,18.353,0.2918701171875,-0.617523193359375,0.3272857666015625,-0.09349312314751829,0.19780775270702977,-0.10483762015846498,-0.9812475442886353,0.3428622782230377,0.5332295894622803,0.4682919324931712,0.7587762367251871,-0.3853632403350183,None
369,18.403,0.217742919921875,-1.0391082763671875,0.1111907958984375,0.013765167035133002,-0.0656898465259651,0.007029206179748629,-2.3682737350463867,0.6105243563652039,0.6866140365600586,0.1063985637837297,0.7385425251093548,-0.203977752886742,None
370,18.453,0.6629791259765625,-2.0361175537109375,0.243377685546875,0.5520085006943167,-1.0426106561956763,0.21828655336700112,-1.6270118951797485,0.32955604791641235,1.8843947649002075,0.025247065968202326,0.7273333183165953,-0.11097062528224583,None
371,18.503,1.0822296142578125,-2.16143798828125,-0.6192169189453125,1.0940833045733183,-1.1619571606047394,-0.6491763103440348,0.09432464092969894,-1.2474558353424072,2.4610724449157715,0.02996149641721162,0.7686967038570617,0.011853690315505807,None
372,18.553,1.1719970703125,-1.812896728515625,-2.0087738037109375,1.2879953594114781,-0.8218584732426354,-2.0750125651092204,0.735450029373169,-1.1088327169418335,2.088120937347412,0.06668895094675974,0.8029586587482994,0.11599828909897805,None
373,18.603,1.5578460693359375,-0.3421173095703125,-2.394805908203125,1.6798878442431442,0.6347817260371231,-2.5702313322634955,2.2188310623168945,0.6729722619056702,0.12173522263765335,0.17674661125204574,0.7824521776098822,0.12204177490720677,None
374,18.653,0.3305206298828125,0.248992919921875,-2.4279022216796875,0.426362589109557,1.225062158644923,-2.62310252923628,0.3940437138080597,4.726111888885498,-0.5271495580673218,0.19610305549797138,0.6149230999964862,0.0958419592267445,None
375,18.702,-0.930633544921875,0.8581390380859375,-2.0275726318359375,-0.7723587530910911,1.7932682210352602,-2.3445623816188834,2.58882737159729,6.207221984863281,1.259077548980713,0.3210363801510327,0.3447076669823735,0.15827479183078388,None
376,18.752,-2.5593109130859375,-0.387939453125,-1.1095733642578125,-2.24540005927902,0.48353999370777845,-1.4863804098530964,1.6255642175674438,8.05256175994873,3.207322597503662,0.3968677327607284,-0.050679021831165814,0.3139108538069175,None
377,18.802,-2.5218048095703125,0.0452117919921875,0.3850555419921875,-2.169440329420689,0.8906493988991993,-0.016285367903914272,0.7022601366043091,5.851558208465576,0.8157424926757812,0.42884586144006986,-0.3365762577650486,0.35236448014962346,None
378,18.852,-1.939422607421875,-0.5015716552734375,0.89654541015625,-1.5171045845884046,0.28705923216107543,0.44965749246963244,1.4466279745101929,3.31823468208313,1.5180926322937012,0.49301013483323,-0.48747050006033327,0.4223180228334704,None
379,18.902,-1.4856719970703125,-0.7282867431640625,0.04656982421875,-1.0389730776471506,0.045782870004588805,-0.40206845920690004,0.1945234090089798,0.6455869674682617,0.5414240956306458,0.5014486801270792,-0.5153960391128463,0.4466989194231619,Hook
380,18.952,-1.4020843505859375,-1.1488037109375,-0.088409423828125,-0.9667289662382992,-0.3528036790972954,-0.5089443672393872,-0.7846788167953491,-2.188307523727417,-0.2527853846549988,0.46712678607584524,-0.41873726190403887,0.4353553843476383,None
381,19.002,-1.2625732421875,-1.0636749267578125,-0.507720947265625,-0.8845442083330399,-0.2294724719078466,-0.9092185361567091,-0.7493274807929993,-2.6353113651275635,-1.2553315162658691,0.4336793082707971,-0.2957960850897828,0.3780290338544601,None
382,19.051,-0.72772216796875,-0.8480224609375,-0.46685791015625,-0.4736006020844886,0.023978623729316362,-0.8852313534965592,-0.024529311805963516,-4.0769782066345215,-2.614541530609131,0.4325738543504944,-0.09629045599846563,0.2541215658842614,None
383,19.101,0.1507415771484375,-0.6581268310546875,-0.1759490966796875,-0.06530749341109993,0.2851277961650116,0.07622843471235874,0.9447396397590637,-3.425013303756714,-3.023810863494873,-0.25827739610095823,0.07474102427587882,-0.21604907055953743,None
384,19.151,0.7752532958984375,-0.477020263671875,-0.5122222900390625,0.4233380375558446,0.4235420776850092,-0.25699078674161885,-0.2986506223678589,-2.462334156036377,-2.8370063304901123,-0.27267394737040807,0.19663771194287513,-0.3519152583425929,None
385,19.201,0.851470947265625,-0.4004058837890625,-0.4535369873046875,0.3851009889007139,0.45496103022005563,-0.22804529266111767,0.3683101236820221,-3.776393175125122,-2.511324167251587,-0.254911035808242,0.37717782136910255,-0.4663699583649111,None
386,19.251,0.681610107421875,-0.576446533203125,0.0394439697265625,-0.08119784697079724,0.06867007528235458,-0.0046988232464628965,0.9674180150032043,-2.965165615081787,-0.8904287219047546,0.06826643865430387,0.5098457138987117,-0.7628079543926722,None
387,19.301,0.90802001953125,-0.738739013671875,0.0728759765625,0.13813975414215796,-0.10219693788625017,0.02706590431906193,0.0704728364944458,-2.2272868156433105,-0.2201794981956482,0.07178142919097227,0.6022924606656612,-0.769880265389092,None
388,19.351,1.310577392578125,-0.782958984375,-0.1481475830078125,0.520855955554594,-0.1694997119763797,-0.15093559549785596,-1.3459701538085938,-2.3972647190093994,-0.6340253949165344,0.004544692407809687,0.6934259439036895,-0.789721437023531,None
389,19.4,0.9968414306640625,-0.93634033203125,-0.3172607421875,0.21103369436209507,-0.31937337357062745,-0.27415652272088553,-1.4859216213226318,-1.858953595161438,0.12707433104515076,-0.06969482707939996,0.7573077602067807,-0.7858077363019674,None
390,19.45,0.637420654296875,-0.921356201171875,-0.5885772705078125,-0.10617685021196055,-0.25559824326145564,-0.5266976069083662,-0.45857077836990356,-1.304943323135376,1.3113250732421875,-0.09254728886579135,0.7982762966872334,-0.7435975045088355,None
391,19.5,0.376312255859375,-0.88720703125,-0.411468505859375,0.017194729994590874,-0.0405389011761208,-0.018801114631179394,-0.1784949153661728,-0.47550180554389954,1.4402388334274292,-0.42073353866079216,0.812368876395033,-0.3591175258647841,None
392,19.55,0.0882720947265625,-0.93682861328125,-0.3818206787109375,0.0013467687857653121,-0.014293209398590578,-0.00582544430876486,0.07968390733003616,0.7184383273124695,1.9447613954544067,-0.37742384779057736,0.7909016571952094,-0.08692532594079719,None
393,19.6,0.078643798828125,-0.89251708984375,-0.058441162109375,-0.008944601709056435,0.10151099013700604,0.006646842170292169,1.2431046962738037,0.7040590643882751,2.030146598815918,-0.06533911879811326,0.7688738848764768,-0.08758840053718144,None
394,19.65,-0.61114501953125,-1.2381134033203125,-0.1670989990234375,-0.565672642560398,-0.23915256352815706,-0.17018177283481983,1.3694334030151367,1.740771770477295,2.6637768745422363,0.003085965945446748,0.7103810656999688,0.04547237697085202,None
395,19.699,-0.167510986328125,-1.16693115234375,0.6539764404296875,-0.06816518208569347,-0.17367197900856046,0.594255206643701,1.139365315437317,2.9961678981781006,1.0804377794265747,0.06001814540997071,0.5973807846495522,0.09934580424243153,None
396,19.749,-0.140625,-0.7726593017578125,0.1791229248046875,0.033951625365151866,0.18654605616484332,-0.043246324887317195,-0.17730820178985596,-0.4025826156139374,-1.2212377786636353,0.2258372995652139,0.6134013866884845,0.17457662536515187,None
397,19.799,0.1964263916015625,-0.543182373046875,0.317657470703125,-0.10155326442336449,0.28082755433410456,-0.1642302383877577,-1.4357149600982666,-0.6816999912261963,-1.7890313863754272,0.5048205873001558,0.6399592432375463,-0.297979656024927,None
398,19.849,0.2386322021484375,-0.5513153076171875,-0.117889404296875,-0.1511607695721301,0.34922883594927,0.0746766484886679,-1.84910249710083,-1.9460527896881104,-1.1557985544204712,-0.20910579565404347,0.711582412236649,-0.3897929717205676,None
399,19.899,0.17974853515625,-0.9842987060546875,-0.41180419921875,0.013623211359012288,-0.074600381590476,-0.0312108003528882,-1.6976163387298584,-2.4220192432403564,-0.18538370728492737,-0.3859563988877882,0.7912489882226607,-0.1661253237972377,None
400,19.949,-0.108917236328125,-1.66949462890625,-0.449920654296875,-0.20808479613119307,-0.7800474730876605,-0.003770957346482806,-1.3737032413482666,-1.6385401487350464,1.3513652086257935,-0.4483597749167471,0.8386368855572427,-0.09916755980306807,None
401,19.999,0.261505126953125,-1.990325927734375,-1.0318756103515625,0.24453064892139273,-1.1291962446831354,-0.5237737149962884,-1.3627020120620728,-1.0770741701126099,1.6471105813980103,-0.5081751116150968,0.8667405107969752,-0.01697447803173228,None
402,20.048,1.2165069580078125,-1.8240509033203125,-1.6208953857421875,1.2139454936880225,-0.9840578069529438,-1.0783043454957615,-0.8091232180595398,-1.3441860675811768,0.2882765233516693,-0.5425928202520762,0.8982797124971565,-0.0025614643197900957,None
403,20.098,1.7967529296875,-1.542694091796875,-2.483428955078125,1.8564461049939938,-0.6565498409946522,-2.0238801637708304,1.9021819829940796,-0.0034788872580975294,1.2458029985427856,-0.46036973529754427,0.8983561342560796,0.05969317530649369,None
404,20.148,1.7513885498046875,-0.298736572265625,-3.0618743896484375,1.8876753136949311,0.6562883160039216,-2.7985240891472514,4.186923503875732,1.8403491973876953,1.5396709442138672,-0.2658306522175655,0.8541922348403498,0.13628676389024372,None
405,20.198,-1.1470184326171875,1.4654083251953125,-4.39630126953125,-1.0421642913584581,2.4578666750054623,-4.332802978585673,4.103435039520264,4.64792537689209,-0.6332999467849731,-0.06385025838738519,0.7114778550712769,0.10485414125872934,None
406,20.248,-3.6773529052734375,1.8809661865234375,0.697052001953125,-3.5686116585511525,2.858145789666591,0.5145818277813683,4.969982624053955,11.548906326293945,0.07818934321403503,0.1835586607471099,0.21252058015570444,0.10874124672228523,None
407,20.298,-4.9520416259765625,-0.8405914306640625,0.4490203857421875,-4.801655702866179,0.14567356014567845,0.380716344622358,-2.309211015701294,6.816491603851318,0.8400384783744812,0.0690897736425011,-0.12633235806935408,0.15038592311038348,None
408,20.348,-2.2802581787109375,-0.6430206298828125,0.2226104736328125,-2.08167364679067,0.3002361500073456,-0.04353014873299266,4.117142677307129,3.6531479358673096,0.9790970683097839,0.2715488535254273,-0.3044188211020941,0.19858453192026784,None
409,20.397,-0.981781005859375,-1.0270233154296875,-0.019683837890625,-0.8074761673942368,-0.06555761725453313,-0.23229036300263803,-1.1475294828414917,0.6168506741523743,-0.49427443742752075,0.21591175839578686,-0.33364807809873775,0.17430483846513828,None
410,20.447,-0.527923583984375,-1.0015869140625,-0.496734619140625,-0.3987621657424062,-0.03274051286653845,-0.7080495001295349,-0.05757754296064377,-0.7637850046157837,-0.9135297536849976,0.21309989482029837,-0.29741263995761025,0.12916141824196883,Hook
411,20.497,-0.42181396484375,-0.7487030029296875,-0.9100189208984375,-0.36427033858658503,0.23529588258004142,-1.0786455035975693,-0.9005311131477356,-1.9385818243026733,-1.4389567375183105,0.16890646193924527,-0.2036184868530254,0.05754362625716495,None
412,20.547,-0.4676971435546875,-0.8674468994140625,-0.5190277099609375,-0.43967782516970944,0.10963261616231634,-0.7300503107369445,0.8597142100334167,-2.0478954315185547,-0.5910488963127136,0.21110548462630252,-0.1024774371483328,0.02801931838497806,None
413,20.597,-0.48394775390625,-1.041656494140625,0.29541015625,-0.4644558808675227,-0.11667495646218795,-0.08410166417128301,3.5328147411346436,-2.692274570465088,-0.17059756815433502,0.37958393552509284,0.03195063654726492,0.019491873038727275,None
414,20.647,0.2683258056640625,-0.8267974853515625,-0.2746734619140625,-0.026015975965193117,0.0801635290118845,0.026631423562663514,1.3112573623657227,-1.7523930072784424,-1.8733183145523071,-0.3152713354392014,0.11929097314744813,-0.2943417816292556,None
415,20.697,0.7286529541015625,-0.63140869140625,0.2949371337890625,0.0059735423119640085,-0.005176327788182555,0.00241791299704619,2.0522358417510986,-2.2900168895721436,-1.587088704109192,0.42321506613407395,0.23194483743367647,-0.7226794117895985,None
416,20.746,0.4229888916015625,-0.6417236328125,1.0742340087890625,-0.30181385067011834,-0.10943142571255848,0.6368257429136626,5.017380714416504,-3.136085271835327,-0.06153952702879906,0.6348852213690357,0.3810029584868523,-0.7248027422716808,None
417,20.796,0.4300079345703125,-0.3731689453125,1.098358154296875,-0.30266563300648697,0.07551428268633864,0.5866230623920623,3.2618911266326904,-2.847466468811035,-0.22988033294677734,0.7519100213510016,0.5083383692542046,-0.7326735675767995,None
418,20.846,0.540252685546875,-0.2774810791015625,0.7501983642578125,-0.2128401556795544,0.16035406830971355,0.2591265200386084,-0.16615702211856842,-2.2232892513275146,-0.6101688146591187,0.746407054312181,0.6007337559829508,-0.7530928412264294,None
419,20.896,0.502960205078125,-0.427459716796875,0.49346923828125,-0.10732653403261971,0.09121550647381238,-0.10530125934757972,-1.1151978969573975,-1.4756085872650146,-0.11614657938480377,0.7558510028456144,0.6580296380531461,-0.6102867391107447,None
420,20.946,0.4558258056640625,-0.2052154541015625,0.3446502685546875,-0.15035857117227103,0.3366797239215016,-0.23749242642215207,-0.7152765989303589,-2.753554582595825,0.10336606949567795,0.7319565186500413,0.7551459840305818,-0.6061843768363335,None
421,20.996,0.6020050048828125,-0.3559722900390625,0.739654541015625,0.04153432131778112,0.2131858770294781,0.1380470329812541,-0.16163310408592224,-1.1446031332015991,1.126003384590149,0.7264262288871078,0.7914067940579498,-0.5604706835650314,None
422,21.045,0.7273406982421875,-0.5723419189453125,0.5242156982421875,0.04354015008585943,-0.034261595853955606,0.03138065865692613,-0.8331617116928101,-1.2171252965927124,1.7228862047195435,0.6754227707869387,0.827119624120111,-0.6838005481563281,None
423,21.095,0.4547119140625,-0.9684600830078125,0.4503936767578125,-0.13646083566155864,-0.3595581686772519,-0.078523366556424,-0.5264179706573486,-0.5218344330787659,2.4089298248291016,0.6557812229989076,0.8415006576017676,-0.5911727497240586,None
424,21.145,0.1609649658203125,-1.001556396484375,0.5910491943359375,-0.33512601769345296,-0.36387044399586244,0.0017696663738985263,0.6149901747703552,-1.0097031593322754,2.2684245109558105,0.6786819299825788,0.8676918268414511,-0.49609098351376546,None
425,21.195,0.608062744140625,-0.7943115234375,1.06195068359375,0.2024327312930035,-0.17195085721297865,0.39252444134311315,1.5170012712478638,0.2753247916698456,2.0284578800201416,0.7323838966186415,0.8607665943359165,-0.4056300128476215,None
426,21.245,1.2680816650390625,-1.281097412109375,1.6358184814453125,0.9683410110261791,-0.6110104652101568,0.9567463027137633,-0.5951717495918274,2.057164430618286,2.264943838119507,0.7118002389298537,0.8039546792118821,-0.2997406540128834,None
427,21.295,1.093414306640625,-2.926910400390625,-0.399932861328125,0.9793558528060261,-2.1755909484735496,-1.0499403615001506,-1.576627254486084,0.35182034969329834,3.802271604537964,0.654277287263164,0.7933696202925896,-0.1140584538345989,None
428,21.345,0.301422119140625,-3.278533935546875,-2.4168243408203125,0.2932431614978903,-2.639430377640467,-3.185901545607484,3.284195899963379,-3.150538206100464,2.122563362121582,0.7691029299215209,0.8790431971538923,-0.00817895764273467,None
429,21.394,-3.4010162353515625,-3.225006103515625,-4.0282745361328125,-3.5662985099404363,-2.9405434728102433,-4.972606459472748,8.015472412109375,0.1739550232887268,-3.1573033332824707,0.9575011036266884,0.8748634150443724,-0.1652822745888739,None
430,21.444,-3.812408447265625,1.4075775146484375,0.0468902587890625,-4.3280048930104735,1.213443185446564,-0.7876588214696228,10.422867774963379,3.094499111175537,-7.513187885284424,0.9739943402231784,0.7897668438352908,-0.5155964457448489,None
431,21.494,-2.228973388671875,3.51397705078125,2.4425811767578125,-3.0439795701983052,3.2260933691848765,1.9397015590119493,5.827481269836426,4.65487813949585,-8.220725059509277,0.8678534033290672,0.6269911797750352,-0.8150061815264301,None
432,21.544,-1.79547119140625,1.45318603515625,0.7607879638671875,-2.706289473346531,1.2564159398830064,0.3978946091615466,-0.4615252912044525,2.1714632511138916,-3.850442409515381,0.8790860821198719,0.5388840044714078,-0.9108182819402806,None
433,21.594,-1.1407928466796875,0.1852569580078125,0.5913543701171875,-2.0519166967207343,-0.012411613995146925,0.2297185511933827,0.0674181878566742,-1.9390331506729126,-0.014816496521234512,0.8774743026849645,0.6178955848356905,-0.9111238500410468,None
434,21.644,-0.7181396484375,0.0485382080078125,0.8001861572265625,-1.6277432641277092,-0.14126002824698555,0.4305946369804049,-0.5161752104759216,-1.6193089485168457,0.07347581535577774,0.8895591973814205,0.6794617895488286,-0.9096036156902093,Hook
435,21.694,-0.875152587890625,-0.0283355712890625,1.1077423095703125,-1.7713720040961287,-0.23187755841674385,0.7135831824498295,0.045215681195259094,-1.2922714948654175,0.6231312155723572,0.8885241537482762,0.725418639086184,-0.8962194162055036,None
436,21.743,-0.9017333984375,-0.2166290283203125,1.0735321044921875,-1.7791443024217797,-0.4384520567630473,0.6481562123426876,0.08004210144281387,-1.469982624053955,0.8146812319755554,0.8866807577262031,0.7740046186855967,-0.8774109039842797,None
437,21.793,-0.7246856689453125,-0.3130035400390625,0.9925384521484375,-1.5762522371662508,-0.531358745614498,0.5159302439873495,-1.0214812755584717,-1.8839688301086426,1.0294417142868042,0.9091299976704987,0.8301295475359964,-0.8515665682209385,None
438,21.843,-0.3198394775390625,-0.1826934814453125,0.955474853515625,-1.1562671263990176,-0.3683476791166035,0.4397992703146777,-1.680627703666687,-2.4435789585113525,0.5646769404411316,0.9408810225452294,0.8918953147306475,-0.836427648859955,None
439,21.893,0.0746307373046875,-0.042205810546875,0.4697265625,-0.7543210157593999,-0.1392314348670949,-0.08111372226251423,-3.424435615539551,-3.2805328369140625,0.270030677318573,0.9848390393038805,0.9537716240764988,-0.8289517530640874,None
440,21.943,0.5035247802734375,-0.24639892578125,0.436553955078125,-0.32138890759745486,-0.2512331253402369,-0.12868408157357436,-3.316007375717163,-3.4089138507843018,0.1436288058757782,0.999963429359169,0.9909275497567535,-0.8249136878708924,None
441,21.993,0.50140380859375,-0.29351806640625,0.372528076171875,-0.3159852395176319,-0.2235811547154415,-0.19929704780460888,-2.6050519943237305,-3.2007997035980225,0.26370754837989807,0.9926036534405809,0.9996816161069437,-0.8173890481113819,None
442,22.042,0.619903564453125,-0.36639404296875,0.039520263671875,-0.2396762066605589,0.14166063787558048,-0.015279903885463457,-2.4047632217407227,-3.1897177696228027,0.4520489573478699,0.10724070033772475,0.9829875672097588,-0.8595797711136839,None
443,22.092,0.5078277587890625,-0.4976348876953125,0.026092529296875,-0.20593014931464848,0.20179681979503705,-0.010580828560681405,-1.7979933023452759,-2.6102371215820312,0.6693160533905029,0.05236115186953683,0.950724267465052,-0.713757908103711,None
444,22.142,0.7915191650390625,-0.659088134765625,0.0199432373046875,0.023197877455799043,-0.019316583170932433,0.0005844972497203761,-1.5599346160888672,-1.9887405633926392,0.9962565898895264,0.030244989303472938,0.9152494440152107,-0.7683212875832635,None
445,22.192,0.67413330078125,-0.77484130859375,0.2158966064453125,0.03179450219290325,-0.036544246748656306,0.0101824448059612,-0.29606708884239197,-1.2145534753799438,1.6579378843307495,0.2684088913485872,0.8891109168947587,-0.6423387985883467,None
446,22.242,0.5882720947265625,-0.763763427734375,0.6938934326171875,0.006787962818460835,0.02478550807717428,0.49372655181630515,-0.46299001574516296,-0.6392462849617004,1.5398842096328735,0.24603893460270193,0.8740304040938489,-0.5814841319081017,None
447,22.292,0.4784393310546875,-0.8130950927734375,0.585205078125,-0.021180344784897664,0.031457464730678786,0.3925625150004295,-0.4865638017654419,-0.45182764530181885,1.9478416442871094,0.22238811355920832,0.8628318048444034,-0.49961967583958516,None
448,22.342,0.4555206298828125,-1.0201263427734375,0.592193603515625,0.03265583388925053,-0.12523031046517064,0.44955260075609327,-1.323979377746582,-0.8653875589370728,1.7311064004898071,0.15740690618797576,0.840158755037263,-0.42286479599356197,None
449,22.391,0.472503662109375,-1.3267822265625,0.0562591552734375,0.13095703592438496,-0.3903866476649813,-0.02442059412399003,-1.4423326253890991,-1.0923488140106201,1.7608472108840942,0.08584186434439686,0.8092994147904353,-0.34154662618499004,None
450,22.441,1.12200927734375,-1.709136962890625,0.160858154296875,0.8443241967569892,-0.7501214874551124,0.10446388247143278,-0.5442188382148743,-0.7785173654556274,1.343568205833435,0.05870293141052022,0.7858272189223431,-0.2776850805867608,None
451,22.491,1.4982757568359375,-2.3290252685546875,-0.570526123046875,1.3202217154364644,-1.348621025668118,-0.6548130073843985,0.5404797792434692,0.568892240524292,2.0475008487701416,0.08565559998223908,0.8030984228962048,-0.17805404139947323,None
452,22.541,0.8969268798828125,-2.5495452880859375,-2.950836181640625,0.8099864190907853,-1.5684441419106374,-3.1236999929221723,1.7728588581085205,1.0144933462142944,1.8391635417938232,0.1735208463380534,0.8322766121670766,-0.08694046079202716,None
453,22.591,-2.0799102783203125,-2.310638427734375,-1.19970703125,-2.1579127011862522,-1.6030429566252757,-1.902006305984735,12.14476203918457,1.0080264806747437,0.1793724149465561,0.7044456011305106,0.8591484011853183,-0.07800242286593964,None
454,22.641,-2.5370330810546875,-0.274169921875,-3.846221923828125,-2.9885460064252993,0.010901419802181234,-4.691722017487282,9.279226303100586,2.445345878601074,-7.80756950378418,0.9475889931507687,0.915146210328228,-0.45151292537061183,None
455,22.691,-4.9156646728515625,1.1317596435546875,-1.165252685546875,-5.690579880559974,1.0306879573823347,-1.789184520859441,9.715795516967773,7.269928932189941,-8.362414360046387,0.9871320748816587,0.9986777991716169,-0.7749152077084114,None
456,22.74,-1.3977813720703125,2.8101654052734375,2.14599609375,-2.309289777238617,2.6863387190744024,1.7537979562066153,2.9044716358184814,7.744027137756348,-5.207118511199951,0.953600367719853,0.9441562371743797,-0.9115084051683044,None
457,22.79,-1.4111785888671875,0.5473480224609375,0.7571868896484375,-2.342111208988424,0.47123696491387607,0.40001527303637086,-1.9173321723937988,-0.623961329460144,-1.0004303455352783,0.9780406132228444,0.9539748278987371,-0.9309326201212367,None
458,22.84,-1.188018798828125,-0.306915283203125,0.968231201171875,-2.091809967581431,-0.40878789986234393,0.5525588623537421,0.6077690720558167,-2.9828238487243652,1.368233561515808,0.9712566418414683,0.987944640459549,-0.9037911687533061,Hook
459,22.89,-1.01385498046875,-0.1406097412109375,0.7708740234375,-1.9031716045711609,-0.20824144263311994,0.3186109417496044,-1.8380255699157715,-1.4973663091659546,0.6539620757102966,0.9890029027251568,0.9967564462023075,-0.8893166241024109,None
460,22.94,-0.908050537109375,-0.138671875,0.9588775634765625,-1.7851032868299643,-0.18230223348114635,0.4804688825077073,-1.1498661041259766,-2.0179877281188965,0.5231249928474426,0.995867140542959,0.9997932506530929,-0.8770527497205893,None
461,22.99,-0.653839111328125,-0.219329833984375,0.8693084716796875,-1.5130935600456454,-0.2082588673195498,0.3578798588154323,-2.251821994781494,-2.2137811183929443,0.7176380157470703,0.9997657829820205,0.9914286188994939,-0.8592544487175204,None
462,23.04,-0.3903045654296875,-0.4530029296875,0.3965606689453125,0.15367211489202937,0.17835793998649552,-0.15613529043078123,-2.975250482559204,-2.508744716644287,0.4781351387500763,0.6586768431471086,0.9672936540451789,0.5439766803217169,None
463,23.089,0.0131378173828125,-0.546356201171875,0.777435302734375,-0.000686996808048913,0.028569811508710186,-0.04065329543564711,-2.597245454788208,-2.90940260887146,0.5795576572418213,0.8181667881693125,0.9203071383756657,-0.013824814190861413,None
464,23.139,0.216461181640625,-0.54998779296875,0.152191162109375,-0.1382006545090061,0.35114228049644836,-0.09716715974008402,-3.0677974224090576,-2.3506081104278564,0.248435378074646,0.2666949204275006,0.8680864523458228,-0.3546618361496311,None
465,23.189,0.5309906005859375,-0.6159820556640625,0.2308502197265625,-0.0971140531196828,0.11265832956086308,-0.042220710642480785,-2.3753621578216553,-3.560631275177002,0.054363373667001724,0.35093278198430383,0.7664545730165695,-0.6281046537056203,None
466,23.239,0.5420684814453125,-0.4993743896484375,0.0803680419921875,-0.1890745281093693,0.17418274683843304,-0.028032527503224214,-1.2761389017105103,-2.9516210556030273,0.35095909237861633,0.15889287535902216,0.6636755852886022,-0.7311430095546818,None
467,23.289,0.96917724609375,-0.322174072265625,-0.0490264892578125,0.23732517941505205,0.3591954302536845,-0.06034698106282824,-2.8591277599334717,-1.949912190437317,-0.020798223093152046,0.01661202865226836,0.5877105974591583,-0.731852066678698,None
468,23.339,0.7468719482421875,-0.69580078125,0.2988128662109375,0.04466082648998182,-0.0416069153971268,0.017868162811884636,-2.3279800415039062,-1.2893513441085815,0.5563391447067261,0.39460256148848083,0.5343670059489879,-0.7022111217522057,None
469,23.388,0.4188690185546875,-1.2232513427734375,0.516693115234375,-0.22804171536421425,-0.4990649412127015,0.27781959611804385,-1.7404439449310303,-0.43822580575942993,1.499442219734192,0.313249740595655,0.5157196426000967,-0.6469107339189017,None
470,23.438,0.46856689453125,-0.9969024658203125,0.2145233154296875,-0.12849338040219893,-0.22543941139392465,-0.005394359511419755,-0.8182626366615295,-1.1317521333694458,1.2738959789276123,0.2741444378278829,0.4664381744804394,-0.5970602749334489,None
471,23.488,0.5062408447265625,-0.96209716796875,0.7107696533203125,-0.0651647449010283,-0.15777315598696562,0.5478017549725953,-1.555829644203186,-0.7133322358131409,0.6322783827781677,0.1985796160534885,0.43459917770551254,-0.5714055896275908,None
472,23.538,0.57659912109375,-1.078460693359375,0.3758087158203125,0.04895016693800203,-0.22978542358815457,0.33924551496081945,-3.1370482444763184,0.6715267300605774,1.0477416515350342,0.04304274737085806,0.46458819588077094,-0.527648954155748,None
473,23.588,0.8968048095703125,-1.4594573974609375,-0.1163330078125,0.42513401415909763,-0.6009754008500049,0.08500084987432413,-5.468320369720459,1.5227603912353516,1.292917251586914,-0.22832799876440332,0.5305993765055086,-0.47167079541121487,None
474,23.638,2.117279052734375,-1.6685791015625,-0.6540374755859375,1.7326101545257846,-0.8083757884497299,-0.3192538157983027,-2.8158798217773438,0.34446629881858826,1.9267107248306274,-0.36269105978121324,0.5451188308274891,-0.38466889820859035,None
475,23.688,2.5303192138671875,-0.8878936767578125,-3.489166259765625,2.2375685814317534,-0.015899548632197003,-3.0968356495360623,-1.0327261686325073,-1.7086538076400757,1.9549371004104614,-0.41030662602198525,0.4715945468809482,-0.292750632435434,None
476,23.737,0.757659912109375,0.622314453125,-4.2095184326171875,0.5575298738499637,1.5604432135519628,-3.926919075494676,2.6039748191833496,4.60484504699707,1.9122319221496582,-0.28843457779371195,0.6603918090189175,-0.20013003825941136,None
477,23.787,-0.9967498779296875,3.1440582275390625,-3.651611328125,-1.1076827877648672,4.134460562106071,-3.5691667697859577,4.190790176391602,8.702410697937012,1.8065787553787231,-0.08295657483590876,0.9153840866492882,-0.11093290983517975,None
478,23.837,-5.03009033203125,1.088897705078125,-3.2544097900390625,-4.737549507893848,2.0449745152598133,-3.2727673292482695,2.045011281967163,15.883601188659668,8.160890579223633,0.019197365702030574,0.928722235772244,0.29254082413740207,None
