Index,Time,Raw Acceleration X,Raw Acceleration Y,Raw Acceleration Z,Acceleration X,Acceleration Y,Acceleration Z,Angular Velocity X,Angular Velocity Y,Angular Velocity Z,Orientation X,Orientation Y,Orientation Z,Punch Type
0,0,0.12335205078125,-0.5334625244140625,-0.770538330078125,-0.007142524546925183,0.03088938652709694,0.0446169228810771,0.05572691187262535,0.22924171388149261,0.30448001623153687,-0.8221857440969812,0.01146183471538361,-0.13049457532817518,None
1,0.05,0.2975616455078125,-0.646270751953125,-0.62164306640625,-0.017384726431875275,0.03775768951826297,0.03631884287137044,-0.497807115316391,-0.8659984469413757,-0.2728094160556793,-0.6932413291182231,-0.03183245819985411,-0.3149463719396878,None
2,0.1,0.1460418701171875,-0.4486236572265625,-0.84429931640625,-0.14885145841839326,0.2030420132581474,-0.14546473032960228,-1.086682915687561,-0.5529212355613708,0.4211253821849823,-0.7313579421605194,-0.05944882565150921,-0.29489332853558076,None
3,0.15,0.1085968017578125,-0.44482421875,-0.454315185546875,-0.05976241349622735,0.24479329468062683,0.25001631297410043,-1.8211398124694824,-0.34744158387184143,0.8229655027389526,-0.7145309203515321,-0.07678033729079568,-0.16835921525403985,None
4,0.2,-0.1861114501953125,-0.566497802734375,-1.00189208984375,-0.33890587385352544,0.027155435534206185,-0.21181000753066426,-2.6091623306274414,-0.6517844200134277,0.31539204716682434,-0.7994694569090572,-0.10922683576082204,-0.15279442365821294,None
5,0.25,-0.0753631591796875,-0.232818603515625,-0.9008636474609375,-0.254421143787778,0.28744823781541773,-0.06584229925509166,-1.7436625957489014,-1.8772766590118408,-0.5326718688011169,-0.8487382118086229,-0.20191130844640878,-0.1790579846080905,None
6,0.3,-0.0614776611328125,-0.14459228515625,-1.069122314453125,-0.26622691187996333,0.272590884251961,-0.18366427056792756,-2.3379931449890137,-1.3207776546478271,-0.5235729217529297,-0.9046229713166418,-0.26610291881257997,-0.20474925074715083,None
7,0.349,-0.0192108154296875,0.2043304443359375,-1.8270416259765625,-0.2825228872684164,0.6316451400037744,-0.962131859763751,0.3715969920158386,-0.3482256233692169,-1.2049261331558228,-0.8965483204327842,-0.28284524780456616,-0.2633120718387289,None
8,0.399,-0.048858642578125,-0.0663604736328125,-1.366729736328125,-0.2814871821779149,0.5086363554837744,-0.5823429637028216,3.4736883640289307,-1.7430205345153809,0.6334866285324097,-0.8065129225422978,-0.365258265244564,-0.23262853959978994,None
9,0.449,0.1376190185546875,-0.0868377685546875,-0.934814453125,-0.0072870870690000256,0.5036013303728281,-0.14084726802813452,0.13725559413433075,3.4698002338409424,1.7872284650802612,-0.8024365736531116,-0.19908114751972794,-0.14490610562368753,None
10,0.499,-0.22711181640625,-0.6078948974609375,-0.4976043701171875,0.05061358056481102,0.1354739610401441,0.11089488550114546,-0.8557493090629578,0.11830586940050125,0.2602536976337433,-0.6334175841591998,-0.19328081125180024,0.277725396971061,None
11,0.549,-0.08795166015625,-0.1588592529296875,-1.066070556640625,0.23880762757250162,0.5875049906489078,-0.48626991522122287,0.5101476907730103,0.1297191083431244,1.028941035270691,-0.6134758030903181,-0.18691313758363431,0.3267592877287516,None
12,0.599,-0.254791259765625,-0.399871826171875,-0.783599853515625,0.08105317257823341,0.35518161669384984,-0.22048102442158102,0.3929358422756195,-0.1931942254304886,0.19257983565330505,-0.5978430679864724,-0.19639374245574617,0.3358444323438584,None
13,0.649,-0.1402130126953125,-0.26300048828125,-0.955963134765625,0.2142692257115169,0.5172685202927657,-0.44067426732037696,1.1431355476379395,1.1209924221038818,0.39717400074005127,-0.5510741055187305,-0.14115604191111875,0.3544822384068294,None
14,0.698,-0.205902099609375,-0.4573974609375,-1.23370361328125,0.1414925154558503,0.3461109917340972,-0.7502874903509326,0.8406499624252319,1.4721051454544067,-0.1513810008764267,-0.5155234210461779,-0.06797134628740137,0.3473946150652253,None
15,0.748,0.0947113037109375,-0.433807373046875,-0.7675628662109375,0.4358442584785856,0.38585866250186396,-0.3073717131676536,0.6007300615310669,0.3763379454612732,-0.13338708877563477,-0.4895572147195157,-0.04918704205075487,0.3411329547676481,None
16,0.798,0.0485687255859375,-0.3336334228515625,-1.1797332763671875,0.38098059536761014,0.5244970150159077,-0.7884347963884939,1.675165057182312,-0.2821033298969269,-0.18524335324764252,-0.4148915705455819,-0.06326977535192543,0.33241186978167264,None
17,0.848,0.25494384765625,-0.3550872802734375,-0.631744384765625,0.6223338932923669,0.5301505807857567,-0.3464752421742211,2.3215949535369873,0.4131396412849426,0.7468308210372925,-0.30671892901671993,-0.042642148010462656,0.3673900456361169,None
18,0.898,0.0067291259765625,-0.6387939453125,-0.5389862060546875,-0.001321720307213,0.12547051914096385,0.10586649979973861,0.9605451822280884,-0.7829621434211731,0.7236855030059814,-0.6448736052974773,-0.08171198479223904,-0.0080508462837755,None
19,0.948,0.0845947265625,-0.5839996337890625,-0.419891357421875,-0.032210431003757936,0.2223646871945938,0.1598785426337319,-0.46621057391166687,0.31470388174057007,0.7559680938720703,-0.5837658652362373,-0.06601994100216503,-0.11680515756625794,None
20,0.997,-0.2074432373046875,-0.7159576416015625,-0.9061126708984375,-0.31342075918049594,0.044311818517979606,-0.26520775371757954,-1.5411041975021362,-0.5407851934432983,0.21790996193885803,-0.6445345972153576,-0.09297278887081584,-0.10597752187580847,None
21,1.047,-0.236419677734375,-0.649749755859375,-1.057098388671875,-0.372678992934478,0.1067512028500247,-0.41745810031211406,-0.029515814036130905,-0.7544498443603516,-0.6101523041725159,-0.6456622478116384,-0.13045684305832328,-0.13625931520010298,None
22,1.097,-0.1720123291015625,-0.661407470703125,-0.8441314697265625,-0.013635703380545677,-0.052430870108501004,-0.06691570537702174,0.5570624470710754,-1.6495081186294556,-1.2471071481704712,-0.7871505691485045,-0.21169129675152717,0.15837662572101682,None
23,1.147,-0.0753936767578125,-0.5058746337890625,-0.808502197265625,0.0034125456521195974,0.02289741469433726,0.036595252767295916,0.36287352442741394,-0.8286521434783936,-0.9086990356445312,-0.8477339420462243,-0.2519916397031881,0.0788062224099321,None
24,1.197,-0.0194549560546875,-0.56805419921875,-0.574798583984375,0.00461202339336168,0.13466384853966162,0.13626268331602698,-0.3599824011325836,-0.4737236201763153,-0.9852545261383057,-0.7112672870784975,-0.27484062566175227,0.02406697944804918,None
25,1.247,-0.06964111328125,-0.5124053955078125,-0.712310791015625,0.00947629747374125,0.0697247032133449,0.09692649401165387,-0.7063078880310059,-0.8978698253631592,-0.08210472017526627,-0.8117819743293743,-0.3177138478642476,0.07911741075499125,None
26,1.297,-0.1900177001953125,-0.510528564453125,-1.054473876953125,-0.11741996464136513,0.08791298365440148,-0.25660340984013164,0.3986605703830719,-0.7809363007545471,-0.13077053427696228,-0.7999813755403811,-0.35448593798889155,0.07259773555394737,None
27,1.346,-0.1952667236328125,-0.51544189453125,-0.9429473876953125,-0.1107051810286871,0.09767344489894692,-0.15749278934617494,0.38517510890960693,-0.15972281992435455,0.2400197833776474,-0.7882780065410088,-0.361942086134745,0.0845615426041254,None
28,1.396,-0.1845855712890625,-0.499053955078125,-0.843658447265625,0.00047377928059219587,0.001280931235103644,0.002165434109609121,0.1139577254652977,0.6369950771331787,0.45778247714042664,-0.8606902868171511,-0.3320731837192779,0.1850593505696547,None
29,1.446,-0.19659423828125,-0.5954437255859375,-0.7147216796875,0.010171920293627151,0.03080866544692762,0.036980188338520015,0.16765370965003967,0.6468805074691772,0.35408538579940796,-0.7683046313032634,-0.3013962019180616,0.20676615857487715,None
30,1.496,-0.1607818603515625,-0.6128692626953125,-0.7021636962890625,0.009217966921769127,0.035137101775919,0.04025654207450402,0.23542556166648865,0.05429413169622421,0.18331202864646912,-0.753386462294212,-0.2988066245139164,0.16999982727333163,None
31,1.546,-0.2097625732421875,-0.6480255126953125,-0.7204132080078125,0.0018132961528448954,0.005601867630404489,0.006227624300885082,0.2760467529296875,-0.043962132185697556,0.24712137877941132,-0.7434718631028143,-0.300903584165937,0.2115758693950324,None
32,1.596,-0.2900848388671875,-0.6631927490234375,-0.7694244384765625,-0.015488142970220387,-0.03540903465965439,-0.041080932579735996,0.13002297282218933,-0.1972707211971283,0.031015440821647644,-0.7574606800359851,-0.31029520061501736,0.2745966958969671,None
33,1.646,-0.3010101318359375,-0.698638916015625,-0.8761749267578125,-0.03101272131994859,-0.0619219409312014,-0.15389181609136338,0.22274306416511536,0.08783397823572159,-0.09559816122055054,-0.7501426212525489,-0.3061172959457226,0.2699974105159889,None
34,1.695,-0.48492431640625,-0.748565673828125,-1.610809326171875,-0.2496178776818908,-0.06006508080703765,-0.9248080045226594,1.2939574718475342,-0.6311401724815369,-0.7171298861503601,-0.7058198746373523,-0.33600197663162185,0.2353064387243592,None
35,1.745,-0.0688323974609375,-0.6729278564453125,-0.7885589599609375,-0.0025798336602482624,-0.02522129112183724,-0.02955513715982505,2.18719744682312,0.8160673975944519,-0.6630676984786987,-0.7606751133214642,-0.2973018570709987,0.06625256380068924,None
36,1.795,0.0937957763671875,-0.674102783203125,-0.2287139892578125,-0.036839225195056585,0.26476058087965026,0.08982969683564379,1.6913912296295166,0.05071857199072838,-0.18671448528766632,-0.3212970312748127,-0.2948796408202151,-0.13063500156224409,None
37,1.845,0.2304840087890625,-0.5345306396484375,0.08685302734375,-0.16113029420650343,0.3736878739720637,-0.060718545820815845,1.7802475690841675,-0.7949759364128113,0.32453495264053345,0.16038131405803097,-0.3326180635915218,-0.39161430299556593,None
38,1.895,-0.008514404296875,-0.738861083984375,0.328125,0.002016853310275183,0.17501804836943524,-0.07772475552716418,0.15150083601474762,-0.3915643095970154,1.1050903797149658,0.40587226326729453,-0.3510166024416733,0.010531257607150183,None
39,1.945,-0.8172607421875,-1.6014251708984375,-1.141448974609375,-0.8127002192579422,-0.7068055769539868,-1.5882542831737152,0.9052667617797852,-4.1998395919799805,-0.11941827088594437,0.44680995504774657,-0.5384937675692227,0.004560522929557804,None
40,2.002,-1.3397369384765625,-1.9253997802734375,-1.90045166015625,-1.4250483622399104,-1.1708798271064422,-2.5511601980196668,4.969212532043457,0.3023145794868469,-1.799515724182129,0.6530894833010678,-0.5256957757843709,-0.0853114237633478,None
41,2.053,0.2406158447265625,-1.113311767578125,-0.3707275390625,0.00045555579074590957,-0.5745402300870904,-1.1782225953989534,5.415165901184082,2.8735671043395996,-3.1423144340515137,0.8318403220984264,-0.39847584953936177,-0.2401602889358166,None
42,2.103,1.150787353515625,0.3894805908203125,0.4412841796875,0.8492441225931826,0.48441438326043607,-0.5074303479433306,9.77294635772705,-1.0347329378128052,-1.2755968570709229,0.9950307145302822,-0.44537326316944215,-0.30154323092244245,None
43,2.153,3.2681884765625,2.259857177734375,2.8673553466796875,3.0500817853840507,1.956110853756588,1.9399031150617083,8.324613571166992,0.6730052828788757,1.7287355661392212,0.9503315285878312,-0.41499822005515197,-0.2181066911784494,None
44,2.203,1.7268218994140625,3.660858154296875,-0.0069732666015625,1.8484016496733529,3.1714926026158623,-0.8705354943274092,3.9812796115875244,-4.866220474243164,6.835106372833252,0.8700162989329792,-0.621966743261234,0.12157975025929031,None
45,2.252,-7.074554443359375,2.25531005859375,0.90740966796875,-6.412412520998809,1.6683341499218858,0.4415477170739662,7.687389850616455,3.8775293827056885,12.035842895507812,0.6216644545441651,-0.45944958190368984,0.6621419223605657,None
46,2.302,-3.2428131103515625,-2.5254669189453125,0.178497314453125,-2.436607887918009,-2.9444742576101186,-0.23919394648717823,-2.2591867446899414,5.566572189331055,4.280726432800293,0.7059936704118197,-0.19773503310097523,0.8062052224335537,None
47,2.352,-2.017791748046875,-1.0108184814453125,1.306549072265625,-1.2636501459588376,-1.465608404861255,0.8328017033447948,-0.43973129987716675,-3.212839126586914,-1.6672745943069458,0.7213930651244217,-0.35198291650161606,0.7541416020880375,None
48,2.402,-2.0870513916015625,0.7261199951171875,0.3259735107421875,-1.4582110826493215,0.28621105604571134,-0.3151504953298503,-3.2722535133361816,-1.4860132932662964,-3.485704183578491,0.8245602265780285,-0.42049371499388455,0.6288403089522411,Straight
49,2.452,-1.089752197265625,0.660888671875,0.834747314453125,-0.6361455221384106,0.2752619362960442,0.03129662829575297,-3.077636480331421,-0.9639162421226501,-4.185052871704102,0.9015360115196654,-0.4637163547707172,0.4536066751272144,None
50,2.502,-0.4608306884765625,-0.116119384765625,0.8282928466796875,-0.1425654334951108,-0.2926543214459967,-0.10312684583429865,-5.203573703765869,1.7689075469970703,-2.938182830810547,0.9825084599552366,-0.3836447671222857,0.3182652549814517,None
51,2.552,0.37286376953125,-0.282745361328125,0.9886322021484375,0.5279805090997765,-0.3570314551703782,0.003533032842478745,-2.2408809661865234,0.2525414526462555,-3.363068103790283,0.9971687533898025,-0.37195363418602323,0.1551167395685264,None
52,2.601,0.9819488525390625,-0.4041290283203125,1.025787353515625,1.0440171577527597,-0.3282173564874925,0.030606493788386424,-3.0279829502105713,0.05025917664170265,-1.8727478981018066,0.997103370781139,-0.36961980487801666,0.06206830521369731,None
53,2.651,1.2478485107421875,-0.4912567138671875,0.578399658203125,1.235189391163486,-0.27271705774282884,-0.3973462951026211,-2.8840761184692383,0.13937734067440033,-1.4953536987304688,0.9758241459624858,-0.3631355286657804,-0.012659119578701552,None
54,2.701,1.6032257080078125,-0.26434326171875,0.8023223876953125,1.624098766424683,0.03393950645717453,-0.1519269013490302,-1.652509331703186,0.5726339817047119,0.6706806421279907,0.9544572328397125,-0.3363131447814605,0.020873058416870496,None
55,2.751,0.5877532958984375,-0.6044769287109375,0.78106689453125,0.7077477988709615,-0.3391013647791554,-0.1755820114547787,0.64727783203125,-1.2105814218521118,1.9881954193115234,0.9636114262798474,-0.3926657104493063,0.11999450297252401,None
56,2.801,-0.986419677734375,-1.695159912109375,0.1550140380859375,-0.772199361997944,-1.4335027597640304,-0.786073200671612,-0.011806858703494072,-2.017723321914673,1.9121840000152588,0.9634534555929232,-0.4832949314528902,0.21422031573643094,None
57,2.851,-0.4312896728515625,-1.4944000244140625,0.0145416259765625,-0.24964788966301357,-1.2090669486470516,-0.926516979251306,-0.4641282558441162,0.07975714653730392,-0.6647558808326721,0.9569781610697257,-0.4797998977861509,0.18164178318854893,None
58,2.901,-0.0098114013671875,-0.7875518798828125,0.2895355224609375,0.001880733349790312,0.1509646817771808,-0.055500645897778034,-1.3030500411987305,0.797536313533783,-1.451476812362671,0.34505975503674613,-0.44444070210755,0.011692134716977812,None
59,2.95,0.48101806640625,-0.425079345703125,0.1657867431640625,-0.24451004623657646,0.2160753986822277,-0.08427235288543372,-0.8438606858253479,0.3464522361755371,-1.3869391679763794,0.36335630699648547,-0.42885705856657297,-0.7255281126428265,None
60,3,0.6154632568359375,-0.8443145751953125,0.29034423828125,0.04791145708840672,-0.06572665563586988,0.02260218682231785,0.778403639793396,-0.4227057099342346,-0.5373713374137878,0.32519105362502065,-0.447852888167541,-0.5675517997475308,None
61,3.05,-0.0059051513671875,-2.6384429931640625,-0.5001068115234375,-0.6030884504753904,-1.8872952991388494,-0.7814415747981658,0.5430691242218018,0.9416322112083435,-0.7291114330291748,0.35074564310356854,-0.40527614774493853,-0.5971832991082029,None
62,3.1,0.7483367919921875,-1.3478546142578125,-0.4071044921875,0.03664456900355262,-0.7696860126947721,-0.8061223463044975,4.9142255783081055,2.052341938018799,-3.038386106491089,0.568003891574198,-0.3094967772435838,-0.7116922229886349,None
63,3.15,2.552947998046875,1.857421875,1.7599945068359375,1.7434714517489343,2.197461701384667,1.2813290313043892,6.9810357093811035,3.4567995071411133,-3.0271177291870117,0.8152323453752293,-0.1413488423873553,-0.8094765462979409,None
64,3.2,3.536712646484375,3.217041015625,1.6112823486328125,2.8521088658044516,3.601330734313069,0.9918963013332305,1.2471015453338623,3.1978795528411865,3.784001350402832,0.8497365338694652,0.018069189308458418,-0.6846037806799233,None
65,3.25,-1.51409912109375,3.5103912353515625,-0.7477874755859375,-1.6649209597413384,3.8141225176746953,-1.6885319048148892,4.8602681159973145,1.5949604511260986,12.053208351135254,0.9516301640910081,0.09766227594909935,-0.15082183864758839,None
66,3.299,-7.6859130859375,0.76983642578125,-1.94158935546875,-7.390638884351555,1.1768576894504748,-2.8059659150762455,-2.555745840072632,3.3595917224884033,9.022841453552246,0.9047155149414732,0.2626791175535787,0.29527420158594486,None
67,3.349,-1.7582550048828125,-0.440948486328125,4.183319091796875,-1.6661427379724474,-0.21822561251017278,3.2127986892483733,4.2900543212890625,-1.0541929006576538,-4.149989604949951,0.9746640619919636,0.21147919387017486,0.09211226691036518,None
68,3.399,-2.0498504638671875,1.0653839111328125,-0.19476318359375,-2.153375373348117,1.4956807922332855,-1.091494574385982,-4.436324119567871,-4.144252300262451,-3.9190750122070312,0.9015756820267753,0.005875487533987198,-0.1035249094809292,None
69,3.449,-1.3418426513671875,0.3460540771484375,0.6106719970703125,-1.6325702369261603,0.8636723813874467,-0.19403214863280405,-2.4842069149017334,-1.8973110914230347,-3.825529098510742,0.8410317826808476,-0.08887262436631838,-0.2907275855589728,Straight
70,3.499,0.19537353515625,-0.118133544921875,0.6620025634765625,-0.21686646864601328,0.45330705179837305,-0.04758451622903426,-2.1272852420806885,-1.3326942920684814,-2.598483085632324,0.7788457107098221,-0.15499732718785802,-0.4122400038022633,None
71,3.549,0.860076904296875,-0.5109405517578125,1.0401153564453125,0.35391581146661444,0.09802584592490504,0.42941012918897836,-2.1199910640716553,-0.8899956941604614,-2.1163277626037598,0.7081141510897253,-0.19879137943759656,-0.5061610928302606,None
72,3.599,1.2100830078125,-0.65814208984375,0.3473968505859375,0.644135545380654,-0.017379612298393687,-0.1713775870426827,-2.1248836517333984,-1.3686538934707642,-1.417085886001587,0.6292436257282549,-0.2653406571394518,-0.565947462431846,None
73,3.648,1.4319915771484375,-0.4204559326171875,0.144073486328125,0.8381875282177997,0.22934279965202975,-0.3304350583946217,-0.9969162344932556,0.44891121983528137,-0.6839287877082825,0.5897375476186333,-0.2436346435883714,-0.5938040489306378,None
74,3.698,0.97802734375,-0.5749969482421875,0.683319091796875,0.3971496292801686,0.05115974165934345,0.16321440952237076,1.2481412887573242,0.6115797758102417,0.3194379210472107,0.6389564346107971,-0.21386781128713306,-0.5808777144698314,None
75,3.748,0.56298828125,-0.277099609375,0.855133056640625,-0.012370884626957013,0.31273413128025285,0.28851326469367555,1.4437315464019775,0.00695005152374506,0.1352670043706894,0.6927731879994206,-0.21352833610719515,-0.575359165876957,None
76,3.798,0.570953369140625,-0.302825927734375,1.03607177734375,0.005903679999541778,0.3048552709635085,0.4780015223124783,-0.44921374320983887,0.7715915441513062,0.2509946823120117,0.6764021623194679,-0.1756889871112065,-0.5650496891410832,None
77,3.848,0.37738037109375,-0.2317352294921875,0.6502532958984375,-0.1818979516504814,0.4065078169481007,0.121241413821088,-1.0155280828475952,-0.4145471155643463,0.13956987857818604,0.6381479817429933,-0.19605474410724172,-0.5592783227442314,None
78,3.898,0.491455078125,-0.4654693603515625,0.55108642578125,-0.07158435328837742,0.06779932616312556,-0.08027013485354695,-1.2922887802124023,0.20814548432826996,0.9243877530097961,0.763956458236565,-0.18583901120431034,-0.5630394314133774,None
79,3.947,-0.1983489990234375,-1.4557647705078125,0.46734619140625,-0.7335231807956413,-0.8588839759944309,-0.13041790278603804,-1.6657001972198486,0.2359699159860611,0.6669013500213623,0.7076294102318689,-0.17423337706732514,-0.5351741817722038,None
80,3.997,-0.694183349609375,-2.400115966796875,-0.04669189453125,-1.2546551586652286,-1.7802066375236554,-0.5958583308087099,-1.2235499620437622,1.4861406087875366,-0.6048291921615601,0.6631055379279026,-0.10064943860387685,-0.5604718090558537,None
81,4.047,0.4780731201171875,-1.1285400390625,0.5211639404296875,-0.2031485397435273,-0.6180530419757065,-0.0035646331604313186,1.4838871955871582,2.899709701538086,-3.089494228363037,0.7167667045855012,0.04415097552647403,-0.6812216598607148,None
82,4.097,1.170318603515625,0.2986907958984375,1.2389678955078125,0.4243790135346973,0.6600657010083166,0.6795196798024522,3.9623982906341553,0.8771944046020508,-1.850287914276123,0.8399951708007962,0.08791142066850242,-0.7459395899809277,None
83,4.147,1.9781951904296875,0.98773193359375,1.46630859375,1.248080423607563,1.2580983032247273,0.8387462833450166,3.3346428871154785,0.19403311610221863,0.46909213066101074,0.9183956867727818,0.0975712257615866,-0.7301147668221244,None
84,4.197,2.4344940185546875,1.4987640380859375,1.938507080078125,1.7636929576317033,1.7570483916724235,1.2432983852554769,1.021462082862854,0.03297073394060135,1.6640300750732422,0.9373971104400668,0.0992117632127635,-0.6708010609229842,None
85,4.247,1.1684112548828125,3.5918426513671875,-0.950439453125,0.8368506084174313,3.9408502506623138,-1.8269445776677553,-0.4644089639186859,-3.09546160697937,7.946621417999268,0.9290583236691473,-0.05536950460530538,-0.3315606464653812,None
86,4.296,-8.177215576171875,1.0847320556640625,1.565765380859375,-8.062902956644798,1.1330206253471722,0.5734948335514257,6.606216907501221,1.538965106010437,9.050407409667969,0.9988179715430668,0.021548751749223084,0.11431261952707587,None
87,4.346,-1.460968017578125,-1.013824462890625,2.0590972900390625,-1.4236409533674845,-1.1431509056815705,1.068198020954432,3.5681400299072266,2.6759860515594482,-1.544546365737915,0.9915903060828192,0.15472561957242276,0.03732706421064051,None
88,4.396,-1.274444580078125,0.3681793212890625,0.988616943359375,-1.3603223201136816,0.3177984544108994,-0.0064141023969822575,-1.5838277339935303,-2.998628854751587,-2.4663877487182617,0.9987206364880983,0.005418253115956948,-0.08587774003555662,None
89,4.446,-1.1530914306640625,0.386260986328125,0.16448974609375,-1.3170122140447231,0.47381298004353684,-0.8180908486527202,-2.7891738414764404,-1.2535635232925415,-1.573604941368103,0.9960537099154885,-0.05722861203642964,-0.16392078338066063,Straight
90,4.496,-1.100677490234375,-0.155181884765625,0.64605712890625,-1.3543258672858614,0.04274962635994098,-0.30077211532034065,-2.3441905975341797,-1.5147022008895874,-1.8357245922088623,0.9788407725874217,-0.13260329116494754,-0.25364837705148635,None
91,4.546,-0.0696563720703125,-0.3112640380859375,0.9188690185546875,-0.45712030469491277,-0.015739593891230474,0.04563537066971923,-2.4049484729766846,1.0347496271133423,-2.828578233718872,0.947226365010567,-0.0811681337425643,-0.38746393262460027,None
92,4.596,0.568084716796875,-0.4265289306640625,0.64141845703125,0.0721921828339569,-0.07087287465795955,-0.150793234744389,-1.912925124168396,1.5356910228729248,-2.419666051864624,0.9122827972301699,-0.00447295916696712,-0.4958925339629181,None
93,4.645,1.1522979736328125,-0.5957489013671875,0.7075347900390625,0.6048143979880811,-0.24306336073425955,-0.051329258277708734,-0.26166436076164246,2.7947158813476562,-1.2098357677459717,0.9068464991857408,0.13485073502891368,-0.5474835756447314,None
94,4.695,0.5750274658203125,-0.3625030517578125,1.0698394775390625,0.03449981537734981,-0.05544293227249936,0.286549019197921,1.2290730476379395,1.637948989868164,0.16579961776733398,0.9310186841887278,0.21545746112380448,-0.5405276504429627,None
95,4.745,0.6542205810546875,-0.5750885009765625,1.6136016845703125,0.11176799302033158,-0.27292930307278646,0.8297362567978052,0.11362456530332565,0.07783354818820953,-0.0457933209836483,0.9330771346402688,0.2192560944305218,-0.5424525880343559,None
96,4.795,0.3853912353515625,-0.1420135498046875,0.8662872314453125,-0.2080302666901369,0.18634932717907138,0.13142075246187002,-1.0459293127059937,-1.1107863187789917,-1.2389856576919556,0.91300025160079,0.1647579779637707,-0.5934215020416994,None
97,4.845,0.5469512939453125,-0.1101226806640625,0.8610992431640625,-0.06736135092311635,0.2662361631320416,0.16757635597776688,-1.5397206544876099,-0.47879135608673096,-0.5242294073104858,0.8789198508260999,0.14110061363890405,-0.6143126448684288,None
98,4.895,0.0997467041015625,-0.7186279296875,0.6667022705078125,-0.0014854760006976914,0.010702153545794624,-0.009928851598360655,-1.279168725013733,-1.2432149648666382,0.4742080569267273,0.6801250417087381,0.07932887469334993,-0.10123218010226019,None
99,4.945,-0.0714874267578125,-1.4216156005859375,0.4254302978515625,-0.15710782239369225,-0.6746286999999286,-0.23387215034961273,-0.4961210787296295,-1.0493144989013672,0.31361064314842224,0.6617324412173912,0.026943329003930233,-0.08562039563587975,None
100,4.994,-0.1712799072265625,-0.93914794921875,0.49078369140625,-0.011713424716558979,-0.06422609037458993,0.03356352717892258,0.7526566982269287,0.8058000802993774,-0.2554738521575928,0.46315447699087325,0.06718594534163687,0.15956648251000352,None
101,5.044,0.1577606201171875,-0.605865478515625,1.0929718017578125,0.29589914355179125,0.2628519337670663,0.6173166683468799,0.38798609375953674,0.9369503855705261,-0.43339642882347107,0.4802594198008521,0.11383680327240958,0.13813852343460373,None
102,5.094,0.19744873046875,-0.5920562744140625,0.8562469482421875,0.011099660770188702,-0.033282684508817106,0.048134270797460466,-0.48347237706184387,0.3057103753089905,-0.467725932598114,0.8225202715487392,0.12900906803219456,-0.1863490696985613,None
103,5.144,-0.0891265869140625,-1.201080322265625,0.80804443359375,-0.2860708593043092,-0.6497644683150507,-0.002673632539862969,0.15536269545555115,0.6824976205825806,-0.2159072607755661,0.8269134264869995,0.16276710544627404,-0.1969442723902467,None
104,5.194,-0.216827392578125,-1.411590576171875,1.1504058837890625,-0.4910117082300318,-0.8923542531819839,0.34095137491383676,0.5369694232940674,-0.1629606932401657,-1.5900248289108276,0.8417112749607549,0.15472241465454378,-0.2741843156519068,None
105,5.244,0.9351043701171875,-0.0487213134765625,0.714935302734375,0.5334328555553138,0.40350678615480207,-0.08139989069448206,1.077589750289917,0.12245294451713562,-2.711998701095581,0.8695667919246379,0.16076839504482018,-0.4016715145618736,None
106,5.293,2.4095916748046875,1.0821990966796875,1.30657958984375,1.9999175242199982,1.4498253379225492,0.47170352892670675,2.0336670875549316,-0.2840098738670349,-0.17510975897312164,0.9152015352143872,0.14673688063396756,-0.4096741505846893,None
107,5.343,2.7565155029296875,1.20123291015625,1.547271728515625,2.4818220763329006,1.5616934000701421,0.655861746186757,0.6103933453559875,1.6258046627044678,2.8765196800231934,0.9270727447330335,0.2265741026094765,-0.2746934265967867,None
108,5.393,1.7971343994140625,2.3626556396484375,0.6224822998046875,1.868949115445891,2.839959705622008,-0.25331646427663135,-2.294437885284424,-1.5401026010513306,7.002948760986328,0.8780659392113822,0.15097423970487384,0.0718147160318286,None
109,5.443,-8.204971313476562,4.0441741943359375,-1.9150390625,-7.596237479021427,4.19858912351499,-2.6932415736988373,6.062200546264648,-1.1829735040664673,11.651741981506348,0.9808766199114589,0.09227361282096108,0.608733834455135,None
110,5.493,-3.3322906494140625,-1.2072296142578125,3.12200927734375,-2.6808982633934257,-1.1946602750579438,2.3633723607977513,3.58627986907959,5.558526992797852,1.0990886688232422,0.9998627736379102,0.3619243941785711,0.6513923860206366,None
111,5.543,-2.626861572265625,-0.68035888671875,-0.150726318359375,-2.0510774767133055,-0.587943077116799,-0.96308830260323,-1.9341614246368408,-6.3288350105285645,-1.9171055555343628,0.9935912583489003,0.0538635792434158,0.5757840955523196,None
112,5.593,-1.4192962646484375,0.7439422607421875,-0.039337158203125,-0.9752751388322312,0.8830418483403765,-0.924490559913203,-0.8519558906555176,-1.00114905834198,-3.069627046585083,0.9878764317039155,0.003832196610499595,0.4440211258162063,None
113,5.642,-1.301025390625,0.183837890625,0.8647613525390625,-1.0041401786952013,0.36060290580194176,-0.07364863267363453,-0.6062446236610413,-1.3864986896514893,-3.1730470657348633,0.9827176022057503,-0.06544591889978091,0.29688521192979855,Straight
114,5.692,-0.3497314453125,-0.152099609375,0.8769989013671875,-0.220559463981876,0.159369807311255,-0.06443691785165073,-2.6664912700653076,0.3254481256008148,-3.4379043579101562,0.949389609888705,-0.04920045076488425,0.129171981330624,None
115,5.742,0.35791015625,-0.140380859375,0.9930877685546875,0.3111795295509339,0.2951725542068617,0.09413867519872876,-2.633455276489258,-0.19876982271671295,-3.5256314277648926,0.8999322445705334,-0.059124312393182506,-0.04673062669906607,None
116,5.792,1.341552734375,-0.57965087890625,0.78045654296875,1.1802572487682632,-0.03131576679139603,-0.04009959231077931,-2.758288860321045,-0.08788884431123734,-2.3051106929779053,0.8314429167795323,-0.06351048209687234,-0.16129548560673673,None
117,5.842,1.4252166748046875,-0.5057525634765625,0.8607330322265625,1.2130939228759439,0.05561784966743588,0.0608160381823597,-0.4565366506576538,-0.17203088104724884,-1.0348689556121826,0.818544589365323,-0.07209220580845238,-0.21212275192874375,None
118,5.892,0.9152984619140625,-0.6309661865234375,1.0044708251953125,0.7039357853666406,-0.08308466020393346,0.195056436837581,0.3375817537307739,-0.5851526856422424,0.01555419247597456,0.8281236022759716,-0.10123869420901806,-0.21136267654742186,None
119,5.942,0.377685546875,-0.8032379150390625,0.9008636474609375,0.15582888324223165,-0.2612423698663856,0.09029566769939434,0.11324186623096466,-0.6602895259857178,-0.21498501300811768,0.8312841719584522,-0.13402241348822272,-0.22185666363276835,None
120,5.991,0.3420257568359375,-0.590179443359375,0.4331512451171875,-0.08125743494111703,0.14021303005364794,-0.10290675019734563,-0.32911691069602966,-0.7433313727378845,-0.7339400053024292,0.5916771711952071,-0.1707526420760665,-0.42328319177705453,None
121,6.041,0.5074615478515625,-0.274505615234375,0.431060791015625,0.049953357597384784,0.4319776919872441,-0.10890920117611746,0.38914188742637634,-0.6458613276481628,-0.7624955177307129,0.6072500098816186,-0.2024768938042515,-0.4575081902541777,None
122,6.091,0.6312713623046875,-0.1525421142578125,0.6455230712890625,0.17033844025091222,0.5626208503994387,0.12008727563975607,-0.37905436754226685,0.740898847579956,-0.07710570096969604,0.5920837112334654,-0.1660686422750905,-0.4609329220537753,None
123,6.141,0.556732177734375,-0.1369476318359375,0.5873260498046875,0.11722877119598518,0.6107545610547083,0.08955282193112019,-0.9256625771522522,-0.11044208705425262,0.48000842332839966,0.5541644954732572,-0.17151150807782894,-0.4395034065383898,None
124,6.191,0.2786865234375,-0.4366607666015625,0.49407958984375,-0.11061738111706199,0.17332115612280763,-0.19611206748633747,-0.7694580554962158,0.19089405238628387,1.6016138792037964,0.7493047844928379,-0.16210056811929205,-0.389303904554562,None
125,6.241,-0.389984130859375,-1.66815185546875,0.4791412353515625,-0.6991053038285011,-1.0151025678142571,-0.2122130358554296,-0.6625800728797913,0.19096222519874573,1.7121390104293823,0.7269587782293071,-0.15267149201236563,-0.3091211729691261,None
126,6.291,-0.950164794921875,-2.6483612060546875,0.653411865234375,-1.346940246904281,-1.9712930824727046,0.03361512699406277,-1.4523441791534424,1.8817275762557983,-1.874649167060852,0.6752218478795342,-0.05914996856306986,-0.39677545198240605,None
127,6.34,0.8329315185546875,-0.85784912109375,0.3053131103515625,0.249031741627039,-0.23415905203057485,-0.2143711671244971,-0.9316301941871643,2.5066332817077637,-4.310457706451416,0.6401426372987472,0.06609892293203358,-0.5838997769276485,None
128,6.39,1.5757293701171875,0.5908660888671875,1.1654815673828125,0.9351068211257958,1.0761441903402862,0.5704118958699409,3.839853525161743,1.0300084352493286,-1.4356920719146729,0.7749756665603732,0.11737636672480851,-0.6406225489913917,None
129,6.44,1.77996826171875,0.775421142578125,1.2796173095703125,1.1801951429579143,1.1758242475237461,0.586833389749849,3.2012386322021484,1.1478317975997925,1.0418243408203125,0.8657957983948655,0.17414670056207088,-0.5997731187608357,None
130,6.49,2.1542205810546875,1.2203369140625,1.852996826171875,1.6565791732816852,1.5885686179624325,1.067657128007662,1.7122594118118286,1.8197382688522339,2.4468019008636475,0.9054129757240809,0.2628993870743131,-0.4976414077730022,None
131,6.54,0.681396484375,1.5611724853515625,0.1648712158203125,0.5176710092515628,1.972718786931515,-0.7316908904787812,0.1621875762939453,-0.9369046092033386,7.128230571746826,0.9088258573436329,0.21743013790830842,-0.1637254751234371,None
132,6.59,-3.802001953125,2.4639434814453125,-0.8126068115234375,-3.49617939632562,2.694064947145245,-1.7364664733643498,3.7243247032165527,-1.9924477338790894,9.505363464355469,0.9703505875585595,0.11927382844440246,0.30582255679938014,None
133,6.639,-5.19659423828125,-1.2054901123046875,0.1529998779296875,-4.642273417297829,-0.919974427225235,-0.628798830816929,-2.1207053661346436,5.65751838684082,5.534889221191406,0.9393197281591326,0.39165939578139936,0.5543208209834211,None
134,6.689,-1.5803375244140625,-1.0400543212890625,3.376617431640625,-1.058487751046039,-0.9208029772451275,2.531956593801284,4.197978973388672,-3.842240571975708,-0.7705749869346619,0.9901803051762086,0.2087751555750847,0.5218497733680233,None
135,6.739,-1.224639892578125,0.8123626708984375,0.5028533935546875,-0.8522928788628008,1.1581037719358285,-0.35843679704934617,-4.829527378082275,-1.1215919256210327,-3.3496274948120117,0.928020843042919,0.15363188532476046,0.37234701371532425,None
136,6.789,-1.7481536865234375,0.2418670654296875,0.062469482421875,-1.4708926247055958,0.7083347366371233,-0.7774913591165591,-2.5041067600250244,-1.2342572212219238,-2.011887311935425,0.8742355788058089,0.0923979106584958,0.2772610618178418,None
137,6.839,-0.7985076904296875,-0.371002197265625,0.3937530517578125,-0.6721555534667404,0.11942553836643183,-0.46852055540392246,-0.20391477644443512,-0.40284866094589233,-3.085029125213623,0.8692401740387298,0.07232425672765763,0.12635213696294711,Straight
138,6.889,0.5441131591796875,-0.3423919677734375,1.26361083984375,0.4917910637963733,0.20304688534670645,0.4270949369215872,-1.2134499549865723,2.5597152709960938,-3.580735445022583,0.8376632829268408,0.1990350987912826,-0.05232209538331425,None
139,6.939,1.3214111328125,-0.544342041015625,1.5920867919921875,1.1345775371173545,0.060712064386494236,0.8181341209226549,-1.7144248485565186,2.0640742778778076,-2.7118399143218994,0.7878250286431976,0.2989354856910228,-0.18683359569514546,None
140,6.988,1.326202392578125,-0.0909271240234375,1.4604339599609375,1.0567315337730019,0.5278145974867782,0.7225016200290139,-0.6848284006118774,-1.0330809354782104,-1.698110580444336,0.7662780817007273,0.2492666113119258,-0.2694708588051231,None
141,7.038,0.887237548828125,0.0225067138671875,1.0939178466796875,0.5953148960013722,0.6691182398991541,0.38916633077553386,-0.8926662802696228,-0.6783484220504761,-0.46785828471183777,0.7368471561802762,0.21628273105655596,-0.2919226528267528,None
142,7.088,0.3646697998046875,-0.550689697265625,0.850738525390625,0.026082280504980404,-0.03938698286224296,0.060847377182086104,-0.057018280029296875,-1.3882871866226196,1.102540135383606,0.8394748092026209,0.14804491306410447,-0.3385875192997071,None
143,7.138,0.0160064697265625,-0.7306671142578125,0.54681396484375,-0.001529814173098512,0.06983331904558832,-0.05226160219938847,-0.005645901430398226,-2.0989551544189453,0.9247379302978516,0.5991677025284103,0.04362949681910799,-0.017536283899661012,None
144,7.188,0.032989501953125,-0.8427734375,0.3892364501953125,-0.002524980727104102,0.06450496555014484,-0.029791736062765528,-0.45914122462272644,-0.262481689453125,0.24571548402309418,0.41929269211298015,0.030514528397420367,-0.0355144826802291,None
145,7.238,0.2240753173828125,-0.819244384765625,0.5976409912109375,0.008313440501642677,-0.03039486690726545,0.022173137495937634,-0.27174070477485657,-0.2653121054172516,-0.5296534895896912,0.5893493825628154,0.017252804619276883,-0.21576187688116982,None
146,7.288,0.258209228515625,-0.710601806640625,0.53851318359375,-0.01996252107373303,0.054937631864067527,-0.04163321674354037,-0.45914947986602783,-0.030126743018627167,-0.4347834289073944,0.6039848665731613,0.0157466726684634,-0.27817174958935803,None
147,7.337,0.2795562744140625,-0.6636810302734375,0.7082672119140625,0.0027904919843816933,-0.0066247720572398805,0.007069825142679842,-0.1804395467042923,0.13242648541927338,-0.26204198598861694,0.7297014156097513,0.022366782427484817,-0.2767657824296808,None
148,7.387,0.2122955322265625,-0.5999755859375,0.569091796875,-0.036364061669550474,0.10276970494118576,-0.09747962653831399,-0.023735955357551575,-0.10698211193084717,0.06024975702166557,0.68818672242356,0.017018720518439893,-0.24865959389611297,None
149,7.437,0.044952392578125,-0.6891326904296875,0.73187255859375,0.00027971394307495234,-0.0042880926039018386,0.004554039227985807,0.05210021883249283,0.12783333659172058,0.11939483880996704,0.7280453433635968,0.023409070500884883,-0.04467267863505005,None
150,7.487,0.273223876953125,-0.705230712890625,0.6660308837890625,0.0021063692392804256,-0.0054368465040245395,0.005134642629585073,-0.9767904877662659,0.3994182348251343,0.07991240918636322,0.6866124472470824,0.043368514432290776,-0.2711175077138446,None
151,7.537,0.129913330078125,-1.3108062744140625,0.4174346923828125,-0.1221228417266712,-0.5901345022613136,-0.22840581805625826,-0.5225444436073303,0.169067844748497,0.39540112018585205,0.6673851621820516,0.05181230311068048,-0.2520361718047962,None
152,7.587,0.09832763671875,-1.5306396484375,0.66204833984375,-0.21507715011786288,-0.8048626414992083,0.04965534854846099,-0.5964524745941162,1.3559633493423462,-1.2798513174057007,0.6448824062389188,0.11934851404464293,-0.3134047868366129,None
153,7.637,0.6384124755859375,-0.90167236328125,0.5390472412109375,0.2191172885722249,-0.20123944363921598,-0.0385211713852428,-0.2262941151857376,1.5081814527511597,-2.2778496742248535,0.6361936876676371,0.19380847759473163,-0.4192951870137126,None
154,7.686,0.9237518310546875,-0.2990875244140625,0.789093017578125,0.4206968303118429,0.3331868318379787,0.19988608902612348,1.211993932723999,0.7810021042823792,-1.889223337173462,0.6817517263658159,0.23196068151078417,-0.5030550007428446,None
155,7.736,1.3268585205078125,-0.1644439697265625,0.6302337646484375,0.8154282889455551,0.40381537966973247,-0.01437497720034897,1.962205410003662,1.0313626527786255,-0.19436681270599365,0.7501339878444072,0.28179171748010606,-0.5114302315622574,None
156,7.786,1.238006591796875,0.112335205078125,0.7137908935546875,0.7605377075858339,0.5478596392087642,-0.04932242167801759,4.0783891677856445,0.8552539348602295,0.7815315127372742,0.8685079162011436,0.32255136822269614,-0.477468884211041,None
157,7.836,2.5905609130859375,1.5793609619140625,2.916168212890625,2.1734211305174553,1.9839098291914339,2.1023287841435807,1.1459566354751587,2.937058925628662,1.3495163917541504,0.8954682143844512,0.4575844382414684,-0.417139782568482,None
158,7.886,0.8130035400390625,3.746337890625,-0.1198883056640625,0.7772192412797143,4.279300944712091,-0.9652697976192991,-2.02375864982605,-3.3685030937194824,7.890079975128174,0.8459232746110412,0.3020586873623958,-0.035784298759348174,None
159,7.936,-9.457061767578125,1.1440277099609375,-0.761077880859375,-8.982887537226535,1.3957234828226603,-1.604765048708938,5.451597213745117,2.365273952484131,10.596356391906738,0.9582660523420413,0.4124257096213909,0.4741742303515907,None
160,7.986,-0.548858642578125,-0.92120361328125,4.3092803955078125,-0.12149125582013193,-0.8594710232279879,3.407312433737019,4.431737899780273,4.918601989746094,-1.048940896987915,0.9976660354084331,0.6218049579176862,0.4273673867579931,None
161,8.035,-2.5189208984375,-0.0464019775390625,-0.0129547119140625,-2.26325892160329,0.19306862206747694,-0.9495927345916113,-3.639455795288086,-4.835855007171631,-3.6609292030334473,0.968836093499352,0.4161912577933774,0.2556619768342099,None
162,8.085,-1.521881103515625,0.565216064453125,0.1950225830078125,-1.4764586450831751,0.9177188228849051,-0.7396851817871197,-2.2065014839172363,-0.4353325664997101,-4.261885643005371,0.9356735038405349,0.39630233509641094,0.04542245843244986,None
163,8.135,-0.7316436767578125,-0.172088623046875,0.7860107421875,-0.8800135256490547,0.24583650637837,-0.11027323855458715,-1.513630747795105,-0.9872106313705444,-3.887155294418335,0.9063151282162956,0.35051915142893403,-0.14836984889124216,Straight
164,8.185,0.243316650390625,-0.40716552734375,0.759979248046875,-0.09059595805271625,0.12528141068763887,-0.017839900665447606,-3.2791688442230225,0.48243457078933716,-3.830634355545044,0.8251812197523445,0.3730063285409967,-0.33391260844334125,None
165,8.235,0.967987060546875,-0.4966888427734375,1.0320281982421875,0.49951295261284334,0.04714470033766227,0.3357688445652399,-1.2564679384231567,-0.30118033289909363,-2.9422290325164795,0.7880897578242999,0.35899237404059586,-0.46847410793403166,None
166,8.285,0.98895263671875,-0.406097412109375,0.251800537109375,0.4377629580965471,0.160955666339339,-0.3602784973315942,-1.6826850175857544,-1.434878945350647,-1.9245309829711914,0.733573497397775,0.2911647666957022,-0.5511896786222029,None
167,8.334,1.2265167236328125,-0.32012939453125,0.58856201171875,0.6465227311841656,0.22815516823373727,-0.013925338320307401,0.1779865175485611,0.7441961169242859,-0.6986384987831116,0.7395924409644556,0.326552620673643,-0.5799939924486469,None
168,8.384,0.973663330078125,-0.5022125244140625,0.9963531494140625,0.42732175734655353,0.020308013202883446,0.341766887968185,1.2932299375534058,-0.5583740472793579,0.8146255612373352,0.781537243298441,0.3000406186735469,-0.5463415727315715,None
169,8.434,0.5683746337890625,-0.7243804931640625,1.16851806640625,0.02780670416662634,-0.17961065400436482,0.5274157845466156,-0.6134503483772278,-0.21786442399024963,0.13756026327610016,0.7620373225930203,0.2896316910362625,-0.5405679296224362,None
170,8.484,0.4797821044921875,-0.770416259765625,0.631256103515625,-0.06311868518120023,-0.15742081357653936,0.05723927839335041,-2.2776246070861816,-0.2157546579837799,-0.055507998913526535,0.6835186770676372,0.279289687531927,-0.5429007896733877,None
171,8.534,0.4485015869140625,-0.5675201416015625,0.153778076171875,-0.1579802128188149,0.19990331219576707,-0.05416679429755464,-1.52767014503479,-0.8247601985931396,-0.8525955677032471,0.2615338429113909,0.2394664456153291,-0.6064817997328774,None
172,8.584,0.65374755859375,-0.5500640869140625,0.1278839111328125,-0.10299865415356269,0.08666320800069494,-0.02014825227478778,0.526974618434906,-1.0257960557937622,-0.38189730048179626,0.22644970950333965,0.18937586201788142,-0.7567462127473127,None
173,8.634,0.588623046875,-0.7260894775390625,0.341217041015625,-0.0029318865975487274,0.00361659642638823,-0.0016995761119452113,0.4146991968154907,-0.05089247599244118,0.1965002715587616,0.4253151832798313,0.18687667360511753,-0.5915549334725487,None
174,8.683,0.544525146484375,-0.7885284423828125,0.3113250732421875,0.00409394341960756,-0.005928451328113593,0.002340658173800747,0.13181822001934052,0.02292528934776783,0.25322720408439636,0.36723169224976016,0.18800262175175325,-0.5404312030647674,None
175,8.733,0.430877685546875,-0.7477874755859375,0.442535400390625,-0.013378227249678187,0.02321789017724274,-0.013740185094382129,0.2892613708972931,0.41894692182540894,0.2364138662815094,0.5092930252419006,0.20853369577433606,-0.4442559127965532,None
176,8.783,0.500885009765625,-0.5606689453125,0.608795166015625,-0.016877933723594474,0.018892426635586212,-0.02051409857137554,-0.315457820892334,0.5743170976638794,0.2605671286582947,0.7355833034560665,0.2365284056733762,-0.5177629434892195,None
177,8.833,0.481353759765625,-0.4754180908203125,0.6121673583984375,-0.04621536851023411,0.04564547760962934,-0.058774943551071046,-0.6225985884666443,0.6500746607780457,0.6618756651878357,0.7897972245105467,0.2679793365563877,-0.5275691282758591,None
178,8.883,0.23394775390625,-1.0238189697265625,0.3913421630859375,-0.24197272600160924,-0.44272115664452605,-0.26882829099054384,-1.2292605638504028,0.2304569035768509,1.194523572921753,0.750630159114512,0.27906269367829606,-0.47592047990785924,None
179,8.933,-0.4290771484375,-2.1702117919921875,-0.162841796875,-0.8975186181799637,-1.5693851291376806,-0.8105839605702756,-0.5211877822875977,0.6716889142990112,0.1696888953447342,0.7331592213345591,0.31114949929326996,-0.46844146974246365,None
180,8.983,0.535614013671875,-1.5920867919921875,0.0046539306640625,-0.012878664861022404,-1.0327988578535796,-0.6169189036222953,0.3027750551700592,2.463782548904419,-1.860691785812378,0.7433700314607946,0.42556980268622346,-0.5484926785328974,None
181,9.032,1.095306396484375,0.0330657958984375,0.5012969970703125,0.4624852004202731,0.43802073169412853,-0.15866423950855446,3.646782636642456,2.0838468074798584,-2.0926175117492676,0.8523349783256547,0.5173777022412415,-0.6328211960641019,None
182,9.082,2.004364013671875,1.028106689453125,1.7499237060546875,1.3944987967009825,1.3040695614569917,1.0070179849807255,3.893906831741333,1.8611268997192383,0.5860171318054199,0.9374143732690844,0.5946579585326696,-0.6098652169708926,None
183,9.132,2.6025238037109375,1.6060791015625,1.981658935546875,2.109755247118474,1.8325787590828175,1.1414940381743657,1.8467594385147095,0.9590405225753784,2.81243896484375,0.9655287483669575,0.632512051838943,-0.49276855659246355,None
184,9.182,1.455078125,2.954925537109375,0.581085205078125,1.3399357461133423,3.1850534509568176,-0.3852394690622726,0.5907293558120728,-1.4852592945098877,7.9974045753479,0.9727947334878853,0.5733011434984656,-0.11514237888665776,None
185,9.232,-8.429580688476562,3.445953369140625,-0.68804931640625,-7.903962714582053,3.3844730130125886,-1.536545581176697,6.1224870681762695,0.44472765922546387,13.37679386138916,0.9973852095081768,0.5913771749928597,0.5256179738945095,None
186,9.282,-4.4664154052734375,-2.5519256591796875,0.5240936279296875,-3.793169028967519,-2.577803126142015,-0.2148716442547114,-0.7465479373931885,5.912530422210693,3.7029829025268555,0.9993874151306371,0.8006576545634871,0.6732463763059188,None
187,9.332,-2.7584381103515625,-1.0829315185546875,1.36962890625,-2.169459399170873,-1.1225231447226023,0.5624507469113607,0.2801187336444855,-5.753576278686523,-2.175919771194458,0.9987992430512098,0.5977674221622583,0.5889787111806897,None
188,9.381,-1.9203338623046875,0.7698822021484375,0.628631591796875,-1.5199590309800182,0.986613059731033,-0.26172099556009765,-5.755753040313721,1.1975058317184448,-4.357373237609863,0.9716278395768053,0.6446677532650212,0.4003748313246692,None
189,9.431,-0.90191650390625,0.647064208984375,0.291656494140625,-0.7696362168427846,1.148144318102708,-0.5635748487721371,-5.824197769165039,4.044289588928223,-5.585134506225586,0.8628134442303712,0.7850662452164411,0.13228028706346542,Straight
190,9.481,0.00543212890625,-0.16436767578125,0.721466064453125,-0.0761292476536234,0.49205757422393503,-0.028503023582701292,-3.7799072265625,2.458167552947998,-4.286424160003662,0.7524760969332959,0.8550832839722097,-0.0815613765598734,None
191,9.531,0.624786376953125,-0.71527099609375,0.380157470703125,0.014035717867918684,-0.016068439182742145,0.008540171810709596,-0.5040056109428406,-0.9048036336898804,-3.1566858291625977,0.469318658400082,0.8307597831214636,-0.6107506590852063,None
192,9.581,1.1566314697265625,-0.884979248046875,0.7704315185546875,0.47712642694906615,-0.22938711168896986,0.4410808732150574,-0.4595241844654083,-0.4006102681159973,-1.8015906810760498,0.4489079145560467,0.8194442681927375,-0.6795050427774963,None
193,9.631,0.94580078125,-0.90948486328125,0.4221649169921875,0.25474802158491505,-0.25592519679897974,0.11344846827774979,-0.4849885404109955,-0.11509569734334946,-0.317134827375412,0.42710930283641124,0.8161323114462983,-0.691052759665085,None
194,9.68,0.613739013671875,-0.95361328125,0.563751220703125,-0.06519232746306214,-0.3021623107377124,0.2251306852311692,0.7612802982330322,-0.17936043441295624,0.33276838064193726,0.4612090993147278,0.8109172556560937,-0.6789313411349371,None
195,9.73,0.255126953125,-0.851409912109375,0.410186767578125,-0.005499677865116959,0.01835353023431807,-0.008842245237444812,0.7834450006484985,-0.6575611233711243,0.5607477426528931,0.4340292047292261,0.7912435229863171,-0.26062663099011696,None
196,9.78,0.1970367431640625,-0.830657958984375,0.562469482421875,0.0043064401018095,-0.018154881612507,0.012293347404391364,1.0058940649032593,-0.3302024006843567,0.1318986415863037,0.560688045115944,0.7810401861040526,-0.192730303062253,None
197,9.83,0.1973419189453125,-0.82464599609375,0.584625244140625,0.005736221069601283,-0.023970334144091443,0.016993549374522576,-0.3547405004501343,0.2574078440666199,0.1263137310743332,0.5783473228747342,0.7890125890138826,-0.19160569787571122,None
198,9.88,0.12603759765625,-0.8842315673828125,0.404022216796875,-0.002533051474764819,0.017770920086095265,-0.0081198713013102,-0.028192488476634026,-0.23044119775295258,-0.2303495854139328,0.41559135000985126,0.7818814834814434,-0.12857064913101482,None
199,9.93,0.208343505859375,-0.7762603759765625,0.4228515625,-0.02106425616782387,0.07848263542007516,-0.04275176995186236,-0.5540384650230408,0.09085773676633835,-0.2006358951330185,0.4783610269545477,0.784705564344238,-0.22940776202719887,None
200,9.98,0.2373046875,-0.73846435546875,0.3855438232421875,-0.03665872062760406,0.11407763911352398,-0.059558635165745444,-0.5261412858963013,0.12441622465848923,0.11358488351106644,0.4628094959696373,0.7885464420929444,-0.27396340812760406,None
201,10.029,-0.350311279296875,-1.3706512451171875,0.0343475341796875,-0.6100780723601593,-0.5136454725413433,-0.41069439529808344,-0.043897684663534164,-0.8781738877296448,0.29462018609046936,0.46086271056264294,0.760792333302896,-0.2597667930632844,None
202,10.079,-0.62786865234375,-1.9029388427734375,-0.0728912353515625,-0.9550496621504875,-1.0873092987782185,-0.5500715301919874,1.0076764822006226,-0.11918258666992188,-1.4107630252838135,0.5049731668775266,0.7569114003908204,-0.3271810098067375,None
203,10.129,0.1772613525390625,-1.1909027099609375,0.2234039306640625,-0.27799204506749287,-0.446674352233176,-0.2653378166028623,1.0345301628112793,1.3919458389282227,-2.7867588996887207,0.548924811037055,0.8005253222003051,-0.45525339760655537,None
204,10.179,1.1045074462890625,-0.0365142822265625,0.9418182373046875,0.5061683473989645,0.5842329931444835,0.4351989099406317,2.068607807159424,2.178729772567749,-3.3753960132598877,0.6322917469066742,0.8609365094336204,-0.598339098890098,None
205,10.229,1.70562744140625,0.368804931640625,0.976806640625,1.1022993016359477,0.9384889852661615,0.4187248949944128,1.812057614326477,1.7603199481964111,-0.12482422590255737,0.6997951262340665,0.902320946488314,-0.6033281397703023,None
206,10.279,1.3661346435546875,0.6820068359375,1.206085205078125,0.8431710686255299,1.1466158945764862,0.49148915000371407,4.383816242218018,0.711975634098053,1.9468724727630615,0.8383784090842703,0.9170914060218347,-0.5229635749291576,None
207,10.329,2.3572540283203125,1.9220123291015625,2.5553131103515625,1.9605450131813413,2.3904744938110785,1.7659050045259752,0.8183353543281555,1.0349829196929932,2.8479058742523193,0.8599737511863196,0.936485693895769,-0.3967090151389712,None
208,10.378,0.346893310546875,3.774749755859375,-0.153533935546875,0.48412412165332624,4.290967580381921,-0.9989254792284255,-0.252356618642807,-2.9617207050323486,10.911882400512695,0.8534661029206965,0.8744911056078452,0.13723081110645124,None
209,10.428,-8.01458740234375,1.2920379638671875,-0.187042236328125,-7.424026367118337,1.4926899467635388,-0.9686920590961281,5.938368320465088,2.4414169788360596,9.881772994995117,0.9685955712108534,0.927046162586731,0.590561035225413,None
210,10.478,-1.977081298828125,-1.5147857666015625,2.405548095703125,-1.3499350469502813,-1.4696482319152593,1.6279555406217283,3.8658955097198486,4.472122669219971,0.9226018190383911,0.9983194724108199,0.9871101260322629,0.6271462518778437,None
211,10.528,-2.3922119140625,-0.7117767333984375,0.8341827392578125,-1.8841498725089934,-0.6198234321472078,-0.022215271203143372,-0.9795926809310913,-5.4228010177612305,-2.8990132808685303,0.9942849782169211,0.9081830427842158,0.5080620415535065,None
212,10.578,-1.7835540771484375,0.5949554443359375,-0.0066070556640625,-1.4137215129768157,0.7687903259249501,-0.9192983005115066,-1.6249487400054932,-2.42788028717041,-3.082090139389038,0.9823407563422614,0.8508119546308371,0.36983256417162186,None
213,10.628,-1.7158966064453125,0.4683074951171875,0.6004791259765625,-1.5063542194102901,0.7608671159427906,-0.33252722785927513,-2.312929391860962,-1.0937035083770752,-3.3544373512268066,0.954189782708345,0.8208189938402274,0.20954238703502237,Straight
214,10.678,-0.147247314453125,0.136962890625,0.8701171875,-0.1360750840987584,0.5843873074659178,-0.024134775027046085,-3.2011656761169434,0.9247994422912598,-3.9986894130706787,0.8943077774497805,0.8463439636200392,0.011172230354366609,None
215,10.727,1.176727294921875,-0.437347412109375,0.845123291015625,1.0219438763437005,0.12762459072517573,0.034661244189019946,-2.897230863571167,1.0659997463226318,-3.331613779067993,0.8203485375602333,0.8735181551212041,-0.15478341857817454,None
216,10.777,1.5581512451171875,-0.53082275390625,1.03662109375,1.258050838617313,0.0864809551457626,0.3093825656113719,-1.900795817375183,0.13446460664272308,-2.9877936840057373,0.7623783618881581,0.8767712000807771,-0.3001004064998745,None
217,10.827,1.2863006591796875,-0.256561279296875,1.0198516845703125,0.9695665649338101,0.36425013639293924,0.3027235930194012,-0.19434870779514313,-0.23902350664138794,-0.34972816705703735,0.7560540070443227,0.8709613099454707,-0.31673409424587745,None
218,10.877,0.32757568359375,-0.6539764404296875,1.212677001953125,0.05499156854857579,-0.06275900525123579,0.45362506396333735,1.035959243774414,-0.6728260517120361,0.9241296648979187,0.7889270629398303,0.8539419165436534,-0.2725841150451742,None
219,10.927,0.097625732421875,-0.8169403076171875,0.7521820068359375,-0.14196248115834162,-0.22856142113446998,-0.020092409323757665,0.21351148188114166,-1.3446953296661377,0.6827229261398315,0.7954419824909914,0.817052025775724,-0.23958821358021662,None
220,10.977,0.1276397705078125,-0.7313079833984375,0.5274658203125,-0.012520212703156314,0.07173415830534013,-0.05173923642829781,-0.2624068558216095,-0.701666533946991,-0.022791597992181778,0.584979465118198,0.7963256151576823,-0.1401599832109688,None
221,11.027,0.2806396484375,-0.6864166259765625,0.4452056884765625,-0.043818873808603886,0.10717660060243817,-0.06951409749421733,-0.5605011582374573,-0.3018999397754669,-0.5507475733757019,0.5441588191194369,0.7871047553181405,-0.3244585222461039,None
222,11.076,0.523529052734375,-0.427032470703125,0.4954833984375,-0.10134113097627662,0.08266199042559208,-0.09591224730579029,-0.6325862407684326,0.14252066612243652,-0.5284481048583984,0.7574919043630387,0.7914802086695404,-0.6248701837106516,None
223,11.126,0.523834228515625,-0.30511474609375,0.5141143798828125,-0.08711383190638988,0.23470081382874708,-0.06497251232952128,-0.7796172499656677,0.5336053371429443,0.35415327548980713,0.7314744703402654,0.8075034287807561,-0.6109480604220149,None
224,11.176,0.26953125,-0.6280059814453125,0.559478759765625,-0.03564201761256752,0.08304565890401017,-0.0739838212059788,-0.6588642001152039,0.6039682030677795,0.7449255585670471,0.665194456735012,0.8249454716077517,-0.3051732676125675,None
225,11.226,-0.4225616455078125,-1.862030029296875,0.2966156005859375,-0.6787925989843726,-1.1315528610442627,-0.3364316371002699,-0.2737860083580017,0.11353375017642975,1.0199882984161377,0.6549110570469521,0.8281406962952746,-0.2562309534765601,None
226,11.276,-0.218536376953125,-1.985748291015625,0.799041748046875,-0.549794033174038,-1.2870099964567157,0.16498089851275155,0.45687514543533325,1.204512357711792,-1.5703043937683105,0.6720018482594523,0.8603765421014015,-0.33125765622091297,None
227,11.326,0.5385589599609375,-0.707366943359375,0.6775665283203125,0.06359809018153001,-0.05805702158637316,0.08358942634959943,0.0802714005112648,1.1644171476364136,-3.145667791366577,0.6749686748848281,0.8885747765836783,-0.4749608697794075,None
228,11.375,1.2251739501953125,0.2688751220703125,0.5380859375,0.6615342640832755,0.8158735233668178,-0.08086725396005845,2.1222221851348877,0.230521097779274,-2.0773186683654785,0.7493191668701024,0.8938030045456946,-0.563639686112037,None
229,11.425,1.6324920654296875,0.44305419921875,1.018280029296875,1.0971606237340432,0.885351657102419,0.2987015372046593,3.4526476860046387,0.5082728266716003,0.6777079105377197,0.8519330341217559,0.9049101569921951,-0.5353314416956444,None
230,11.475,2.0518798828125,0.605682373046875,1.462677001953125,1.5877575418204102,0.9715945342265038,0.6560180015738595,2.5054993629455566,1.3509563207626343,1.6451318264007568,0.9106856102284246,0.9315731936720263,-0.46412234099208977,None
231,11.525,2.2180328369140625,2.1903533935546875,1.0652923583984375,1.923240859545422,2.605389519534203,0.20457015918953914,-0.46893951296806335,0.04002011939883232,3.668113946914673,0.9007502308573984,0.9322988015434618,-0.29479197736864043,None
232,11.575,-5.888458251953125,3.8994598388671875,-1.94873046875,-5.517594261321887,4.199517010309853,-2.827607931379973,2.406022548675537,0.2691185474395752,13.583539962768555,0.9463654395883101,0.9370811151538446,0.370863990631238,None
233,11.625,-5.6091766357421875,-2.2984466552734375,-0.393798828125,-5.057908210631379,-2.125815123458625,-1.2100717467613595,2.4117002487182617,6.84315299987793,4.078891754150391,0.9783597941044576,0.9998953786568047,0.5512684251108081,None
234,11.675,-2.8263092041015625,-1.08868408203125,1.8208160400390625,-2.2938461657497458,-0.9279080535006152,0.9897720090520946,0.3462916314601898,-6.220519065856934,-0.44752052426338196,0.9817955405597785,0.9474937347640442,0.5324630383518165,None
235,11.724,-1.3099212646484375,0.7220611572265625,0.3135223388671875,-0.9193273295532459,1.009370273747289,-0.5610574742035996,-2.5260469913482666,-2.1654579639434814,-3.2046210765838623,0.9500487640339383,0.9073901282543874,0.3905939350951916,None
236,11.774,-1.5089874267578125,0.2090301513671875,0.609832763671875,-1.2543984787420768,0.5773884333830037,-0.2843129982811733,-1.467510461807251,-2.175638437271118,-2.8770813941955566,0.924612328558022,0.8563968492496784,0.2545889480157358,None
237,11.824,-0.354034423828125,0.0001678466796875,0.901336669921875,-0.23820383608588747,0.5182487110563093,0.05388431556202078,-3.158714532852173,0.8317744731903076,-2.8266289234161377,0.853195224912285,0.8771231581530055,0.11583058774223752,Straight
238,11.874,0.45587158203125,-0.28997802734375,0.87493896484375,0.44152516016016524,0.2994210992822568,0.06722438053070368,-1.6334892511367798,0.06295153498649597,-2.608761787414551,0.8077977189817189,0.8786304832962224,-0.014346421871084761,None
239,11.924,0.7538604736328125,-0.46600341796875,0.989990234375,0.6398088647224313,0.21106206579632103,0.26295889997535815,-2.388749599456787,-0.5076687932014465,-1.999068260192871,0.7318064989150123,0.866228089339895,-0.11405160891038128,None
240,11.974,1.0957183837890625,-0.426300048828125,0.524322509765625,0.8707302001142615,0.29463603591426,-0.13114028774696818,-1.6620692014694214,-0.10341666638851166,-2.2526116371154785,0.672710080247254,0.8636329199566506,-0.22498818367480103,None
241,12.024,1.2248382568359375,-0.1275177001953125,0.5763702392578125,0.9261353894993588,0.5786509508512351,-0.06558180982685669,-0.00130947632715106,-0.8208903670310974,-1.528045415878296,0.6726616343243651,0.8422199589021191,-0.2987028673365787,None
242,12.073,1.1062469482421875,-0.1789093017578125,0.8540802001953125,0.8378466057015912,0.5572439815146953,0.2327593493853648,-0.7358723878860474,1.0540602207183838,0.6320224404335022,0.6449870666855035,0.86945138806097,-0.26840034254059625,None
243,12.123,0.3946380615234375,-0.407928466796875,0.592010498046875,0.20232516948757198,0.34208558470427863,-0.04083598737247718,-0.0026943201664835215,-0.4537602961063385,1.564271330833435,0.6448841117370723,0.8580202867197798,-0.19231289203586552,None
244,12.173,0.18231201171875,-0.8420257568359375,0.82269287109375,0.05534631885142005,-0.10102148827490864,0.16330498311805064,0.5262256860733032,-0.3894713222980499,1.3241835832595825,0.66476778118591,0.8478563036801501,-0.12696569286732995,None
245,12.223,-0.0161895751953125,-1.0013580322265625,0.7227325439453125,-0.10903672725985819,-0.2557136759090102,0.0628886985960615,-0.05511731281876564,-0.8620801568031311,0.6865648031234741,0.6627064898042949,0.8242209937483781,-0.09284715206454569,None
246,12.273,0.1195526123046875,-0.9136962890625,0.48455810546875,0.00472181158394909,-0.03608705521976663,0.019137951328639102,-0.6406497359275818,0.16080565750598907,0.11805260181427002,0.46851937941875355,0.8287472605534818,-0.11483080072073841,None
247,12.323,0.1633453369140625,-1.07318115234375,0.7110748291015625,0.03112433209827492,-0.1958775791359867,0.2497115814079539,-0.06942727416753769,0.5027233362197876,-0.35049304366111755,0.4654497752215573,0.8425507594773823,-0.13222100481578758,None
248,12.373,-0.0018768310546875,-1.3311614990234375,0.7336273193359375,-0.19719068006507542,-0.4547585902390485,0.29343367801542797,-0.37356507778167725,1.0297770500183105,-1.2793625593185425,0.4488379040346141,0.8691546787522388,-0.19531384901038792,None
249,12.422,0.5425567626953125,-0.840362548828125,0.64495849609375,0.2504166366659468,0.0051443414964797984,0.19799961076181827,0.4164526164531708,0.8413514494895935,-1.997727394104004,0.46734663651793346,0.8891837049354216,-0.2921401260293657,None
250,12.472,1.0251922607421875,-0.2174072265625,0.59674072265625,0.668815591620841,0.5758611155838392,0.10305964437354648,1.407914400100708,1.0196928977966309,-1.3584648370742798,0.5283727813563578,0.9113462057801713,-0.35637666912134647,None
251,12.522,1.2734832763671875,0.1206207275390625,0.7067413330078125,0.9351418211314597,0.855519797323438,0.11899273292523505,2.358330249786377,1.389681339263916,0.3846643269062042,0.6245844612776086,0.9377265470333388,-0.33834145523572773,None
252,12.572,1.6794586181640625,0.4340972900390625,1.356658935546875,1.4263481479810651,1.1125321435346427,0.666976951262689,2.3803906440734863,1.873005986213684,1.7851954698562622,0.7128957351202123,0.9661016211155348,-0.2531104701829974,None
253,12.622,2.10015869140625,1.19439697265625,1.826995849609375,2.002249722012498,1.8758054030780442,1.1016708295925826,0.4597601294517517,1.5713896751403809,3.156559944152832,0.7288267595460429,0.9833840014862456,-0.09790896939375188,None
254,12.672,-0.4700927734375,4.3924560546875,-0.5251617431640625,-0.041714085007062585,5.054816665779794,-1.139791810905677,-1.3713735342025757,-4.537944316864014,10.815276145935059,0.6802020166558443,0.9173410985145527,0.4283786884304374,None
255,12.721,-6.699676513671875,-2.379974365234375,1.7523651123046875,-6.095290565429526,-1.8723690187377664,1.1383175263838123,2.6394858360290527,5.643150806427002,4.125943183898926,0.7707468333385462,0.9919096245517505,0.604385948242349,None
256,12.771,-1.754638671875,-1.1851654052734375,3.7013702392578125,-1.1122500581167856,-0.7864622539733184,3.0468683935330247,2.8729734420776367,-2.628923177719116,0.9723214507102966,0.8540184315156921,0.9667142438089715,0.6423886137582143,None
257,12.821,-1.7601318359375,0.6991729736328125,-0.29534912109375,-1.2651902574479954,1.2293491381542134,-0.9837865317969264,-2.1823182106018066,-2.4533681869506836,-3.596867322921753,0.7922852002614175,0.9281429236787205,0.49494157848950454,None
258,12.871,-1.0911712646484375,0.7567291259765625,0.52001953125,-0.7121106628439012,1.3269196270823613,-0.20881230985486066,-0.15250378847122192,-2.07017183303833,-2.579733371734619,0.7876096958921573,0.8847156656372697,0.37906060180453627,None
259,12.921,-0.6644134521484375,0.0979461669921875,0.8086395263671875,-0.41254143469728816,0.7703435958485275,0.11262071592276357,-2.085235357284546,-0.13060195744037628,-2.683335542678833,0.7192056017391428,0.8816529426114065,0.25187201745114934,Straight
260,12.971,0.1620941162109375,-0.3172149658203125,1.1322479248046875,0.2722286844418009,0.46254303954628795,0.5159299630777053,-2.676013231277466,1.335878849029541,-2.8851141929626465,0.6200901654823484,0.9111834785899718,0.11013456823086343,None
261,13.021,0.7915802001953125,-0.4504241943359375,1.0942535400390625,0.7619445805464851,0.4119600657517747,0.5888674321957628,-2.7754175662994385,0.3934972286224365,-2.7999680042266846,0.5056081868543335,0.919112660540011,-0.029635619648827483,None
262,13.07,1.058135986328125,-0.5922088623046875,0.5389404296875,0.9361421059357792,0.3231271829383938,0.1551730295274893,-2.6616921424865723,0.11527466028928757,-1.8531712293624878,0.3866553862751897,0.9213682622081336,-0.12199388039234586,None
263,13.12,0.8516845703125,-0.4642181396484375,0.6300506591796875,0.706115361168522,0.4403889547084443,0.22943162544764378,0.3980538845062256,-0.6921699643135071,-0.47579529881477356,0.40493234436357833,0.9073672146100521,-0.14556920914397803,None
264,13.17,0.6105804443359375,-0.63421630859375,1.0235595703125,0.5078077224893078,0.264129298862385,0.5964612944923988,0.5378461480140686,-0.7461096048355103,0.8626756072044373,0.42937185794805166,0.8910585916365283,-0.10277272184662961,None
265,13.22,0.2430877685546875,-0.71514892578125,0.7755584716796875,0.018546854681604164,-0.054563679945855315,0.059172743889391644,-0.31127214431762695,-0.6534262895584106,0.2638492286205292,0.7351582417852907,0.8757565800816202,-0.22454091387308334,None
266,13.27,0.3833465576171875,-0.722259521484375,0.70562744140625,0.02841482895284353,-0.05353610291979016,0.05230328185707522,-0.7404397130012512,-0.27367523312568665,0.05278465151786804,0.6988229698727813,0.8690689205151336,-0.35493172866434397,None
267,13.32,0.2539215087890625,-0.8660736083984375,0.5654144287109375,0.015500510670448803,-0.05286902741085309,0.03451543914989941,0.03699450194835663,-0.8479323983192444,-0.060921408236026764,0.5466637353799355,0.8473210285365281,-0.2384209981186137,None
268,13.37,0.2179718017578125,-0.9699554443359375,0.537139892578125,-0.037208117085116676,-0.15680025520513474,0.014012902824237061,-0.13405713438987732,0.022479742765426636,-0.3458828330039978,0.5410388450859156,0.8479174214427189,-0.2551799188429292,None
269,13.419,0.137420654296875,-1.1010589599609375,0.6230010986328125,-0.15371661217509153,-0.2977644175447325,0.10342726346059083,0.04906128719449043,0.5213800668716431,-0.7476321458816528,0.543100236406688,0.8614476703590371,-0.2911372664719665,None
270,13.469,0.3546142578125,-1.0351715087890625,0.7086029052734375,-0.01308623494721789,-0.25981898092931566,0.19515884292023322,0.21568036079406738,0.5020897388458252,-1.6223937273025513,0.5521234747378567,0.8739241101033155,-0.3677004927597179,None
271,13.519,0.778472900390625,-0.6044464111328125,0.5940399169921875,0.33961270849250513,0.12771087898843037,0.07312971888750108,0.6695125699043274,0.9674339890480042,-1.555894374847412,0.5797196503041411,0.8964043925237266,-0.43886019189811987,None
272,13.569,1.0214385986328125,-0.27618408203125,0.4925384521484375,0.5624326152048515,0.4019015196307921,-0.08149414622551965,1.682050108909607,1.1951345205307007,-0.4509248435497284,0.6461179233948062,0.9212750387112053,-0.45900598342796095,None
273,13.619,1.150390625,-0.1280517578125,0.7499847412109375,0.712097971035857,0.47468699688175486,0.08319726152142881,2.66638445854187,1.3042186498641968,0.46355512738227844,0.7418374492374555,0.9446602106617684,-0.4382926539641429,None
274,13.669,1.9909515380859375,0.4232330322265625,1.511932373046875,1.562658461201901,0.9692117203345791,0.7918821578361205,1.7245848178863525,2.337998867034912,0.22190576791763306,0.7968331498102341,0.976474677961424,-0.42829307688403645,None
275,13.719,2.141510009765625,1.9359893798828125,1.205078125,1.891663728250305,2.579234628930149,0.4813292837636235,-1.556287407875061,1.2324159145355225,3.8016297817230225,0.7474539597686523,0.9879003818365575,-0.24984628151532004,None
276,13.768,-6.02056884765625,4.5182952880859375,-3.0161285400390625,-5.578703082396043,5.040833319934364,-3.745312090842963,2.0958056449890137,-1.8754994869232178,14.203978538513184,0.8128400931412878,0.9690376587270112,0.44186576526020754,None
277,13.818,-5.28900146484375,-1.7609710693359375,0.5527496337890625,-4.727719107427955,-1.3915168089141612,-0.18783504382043725,3.1808595657348633,5.702425479888916,2.7651400566101074,0.894831876668423,0.9993653906051859,0.5612823574157946,None
278,13.868,-2.38018798828125,-0.5837860107421875,2.00213623046875,-1.836161009793526,-0.1930731632518386,1.2595878364340578,-0.43256738781929016,-6.1851043701171875,-0.4141079783439636,0.8849683668583849,0.9627970602234699,0.5440269784877241,None
279,13.918,-1.0580596923828125,0.9100341796875,0.1195831298828125,-0.681449697484815,1.4695932266994864,-0.6186977005942953,-3.2836296558380127,-0.44767045974731445,-3.781898260116577,0.7969594330123482,0.9565077853679909,0.37660999489799746,None
280,13.968,-1.2289276123046875,0.372467041015625,0.416046142578125,-0.9783783442644656,1.0039947151159463,-0.3177098530566278,-1.242178201675415,-2.6589252948760986,-2.6577308177948,0.7579310790614258,0.9094000410849802,0.2505492680402219,Straight
281,14.018,-0.634063720703125,0.05474853515625,0.85693359375,-0.5339243017684483,0.7875661607437401,0.18391767684777804,-2.3450028896331787,-0.7772393226623535,-3.05880069732666,0.6764159792429175,0.8925539159641683,0.10013941893467665,None
282,14.068,0.1259307861328125,-0.1709747314453125,1.0574188232421875,0.062420471721444895,0.6652870104127958,0.5127788145503802,-3.3122293949127197,0.10840503871440887,-3.277212619781494,0.5457417618918539,0.8949850049539914,-0.0635103144113676,None
283,14.117,0.8127593994140625,-0.18426513671875,0.6257781982421875,0.6023344112374776,0.7247573391019351,0.26605682995317953,-4.0091986656188965,-0.4486212134361267,-2.9691314697265625,0.36795999016322395,0.8847542850728621,-0.21042498817658495,None
284,14.167,1.4603118896484375,-0.56134033203125,0.2805023193359375,1.1940935881774608,0.3556125431246031,-0.01669330765968735,-1.2677083015441895,-0.5129753947257996,-1.1491590738296509,0.30832212021420596,0.8725107809776478,-0.26621830147097675,None
285,14.217,0.9042205810546875,-0.6507415771484375,0.7816314697265625,0.672828467291612,0.2680974442809563,0.4619557865929685,0.4277060627937317,-0.3496062159538269,0.7191845178604126,0.3285935239004131,0.8638371265674074,-0.23139211376307547,None
286,14.267,0.6103973388671875,-0.873504638671875,0.9988861083984375,0.42555063386088565,0.0484973654196551,0.6586744094527438,0.37358611822128296,-0.5717796087265015,0.9518502354621887,0.34617724470749217,0.8490837876317868,-0.18484670500630182,None
287,14.317,0.2018585205078125,-0.8575439453125,0.5886077880859375,0.011340103748027769,-0.04817551066892167,0.033067087616612256,-0.08606697618961334,-0.7903404235839844,0.5768806338310242,0.5659060498290491,0.8275511537749364,-0.19051841675978473,None
288,14.367,0.28546142578125,-0.81329345703125,0.614898681640625,0.015850261758605266,-0.04515816504883796,0.03414228396131469,-0.16514474153518677,-0.6205889582633972,-0.12069898843765259,0.603089230489207,0.8097359552082113,-0.26961116402264473,None
289,14.416,0.2674713134765625,-0.6317138671875,0.4667816162109375,-0.05487959580496915,0.1296146537923285,-0.09577395831307056,-0.43788519501686096,-0.8641754984855652,-0.43520525097846985,0.5942779869125813,0.7836334060824238,-0.32235090928153165,None
290,14.466,0.4288787841796875,-0.531158447265625,0.4494476318359375,-0.09583653851864615,0.11869178161433358,-0.10043281894427436,-1.0791922807693481,0.32038334012031555,-0.14595668017864227,0.6459471567900534,0.7934839206974327,-0.5247153226983337,None
291,14.516,0.4043121337890625,-0.5700225830078125,0.436859130859375,-0.08626258711236334,0.12161797436526978,-0.09320669770264434,-0.8540539145469666,0.18422016501426697,0.23157383501529694,0.6082928138277794,0.799055919727073,-0.49057472090142584,None
292,14.566,0.0606689453125,-1.041168212890625,0.3684234619140625,-0.3945640509978335,-0.3280465566990637,-0.16469980951658947,-0.2390083223581314,0.09039487689733505,0.8023057579994202,0.5987644071564139,0.8017652752338896,-0.4552329963103335,None
293,14.616,-0.484954833984375,-1.82098388671875,0.415191650390625,-0.9518850350502331,-1.113755937351412,-0.11566126235100005,0.03868747502565384,0.6017920970916748,-0.2636446952819824,0.6003125746558639,0.819382359435315,-0.46693020106585814,None
294,14.666,0.29681396484375,-1.3723907470703125,0.48712158203125,-0.2695806639396864,-0.6944492923476341,0.018514594830064512,-0.7816516160964966,1.9144163131713867,-2.3261678218841553,0.5686052177151583,0.8704193906438519,-0.5663946287834364,None
295,14.716,1.1540985107421875,-0.4913482666015625,0.588348388671875,0.5004021001828433,0.10167010357823336,0.11823115281349056,1.309944748878479,1.56741201877594,-2.2066845893859863,0.621226231354821,0.9062909444776941,-0.6536964105593442,None
296,14.765,1.530517578125,-0.0191192626953125,0.589935302734375,0.8732302367280785,0.5059642606144891,0.04932394104473037,2.593224287033081,1.2725976705551147,-0.0950988158583641,0.7173336254823935,0.9313321902476058,-0.6572873413969215,None
297,14.815,1.5508575439453125,0.234619140625,0.864410400390625,0.9384357000118088,0.6587988296142893,0.19731889503169975,4.089096546173096,1.903733491897583,1.161862850189209,0.8438522793899826,0.9617280885285783,-0.6124218439335037,None
298,14.865,2.016448974609375,0.84686279296875,1.855682373046875,1.506892944163063,1.2144381987747037,1.0777100259275283,2.499690532684326,2.5064430236816406,2.4890360832214355,0.9041590678113447,0.9884348487349047,-0.509556030446312,None
299,14.915,0.5189056396484375,2.34515380859375,0.5157318115234375,0.31934404538398553,2.757974499745232,-0.3729493726207094,0.1303311139345169,-0.9513804912567139,6.675164699554443,0.9069236965984377,0.9801057999998187,-0.19956159426445194,None
300,14.965,-7.3393707275390625,1.46673583984375,-0.81988525390625,-7.042397439077729,1.6912782773794088,-1.7479949239808628,3.9499728679656982,1.439721941947937,10.048637390136719,0.9719588277986771,0.9918426009175978,0.29697328846133336,None
301,15.015,-1.640869140625,-0.6689910888671875,2.703399658203125,-1.4502337822416647,-0.6561062336989685,1.7218233032304968,4.48496150970459,3.243405342102051,-2.1942408084869385,0.9999138560484049,0.9994099633339237,0.19063535838333528,None
302,15.065,-1.46661376953125,0.6870574951171875,0.2728271484375,-1.4236968392257978,0.8657403590949779,-0.7101431314864922,-3.333782911300659,-4.339068412780762,-2.9775843620300293,0.983876780602415,0.9833749753102303,0.04291693030545213,None
303,15.114,-1.0720672607421875,0.54248046875,0.2501983642578125,-1.1317072659871035,0.8482657678368877,-0.7000323554291111,-2.63041615486145,-1.6981532573699951,-2.0521106719970703,0.9519251935572659,0.9644328096743561,-0.059640005244916076,None
304,15.164,-1.047576904296875,0.1663360595703125,0.5625,-1.2239757333534578,0.5844639625327623,-0.32859624052157843,-2.547860622406006,-1.5163592100143433,-2.3530256748199463,0.9052923322208508,0.9416405580181032,-0.1763988290565828,Straight
305,15.214,-0.504364013671875,-0.173126220703125,0.69805908203125,-0.8213453706803188,0.35352576908126254,-0.09071243175790233,-2.9995858669281006,0.2650870680809021,-2.9043662548065186,0.8316586812780018,0.9460193970170636,-0.31698135700844376,None
306,15.264,0.282012939453125,-0.40771484375,1.043914794921875,-0.18047396783179354,0.20018701389478744,0.39849927600243673,-3.3353476524353027,0.9479141235351562,-3.1650609970092773,0.7279455352826274,0.9603127215588643,-0.46248690728491854,None
307,15.314,1.107147216796875,-0.4922332763671875,0.9076385498046875,0.5193576695286055,0.18930009300571526,0.4717306299943436,-4.925844192504883,1.3985366821289062,-2.9505155086517334,0.5388138991022043,0.9774543187683228,-0.5877895472682695,None
308,15.364,1.4607086181640625,-0.465606689453125,0.6551361083984375,0.8017309924310347,0.2430537823738026,0.4030471866797353,-4.5452351570129395,1.0492836236953735,-1.8226972818374634,0.33515218828587967,0.9871819837264818,-0.6589776257330278,None
309,15.414,0.8736114501953125,-0.7940826416015625,0.12017822265625,0.2334369467661872,-0.06033470477574354,-0.10739719421281094,-0.8203979730606079,-1.7246551513671875,0.494666188955307,0.2962336242785045,0.9697682894562293,-0.6401745034291253,None
310,15.463,0.449462890625,-0.995208740234375,0.15948486328125,-0.14712452888383454,-0.23672321769710025,-0.10278058046829758,0.6431845426559448,-1.0281405448913574,1.1096644401550293,0.326790935200583,0.9559479683895722,-0.5965874195088345,None
311,15.513,0.385589599609375,-1.0091400146484375,0.5041351318359375,-0.18430311647072162,-0.23909880296243002,0.2173271395065816,0.47268205881118774,-0.6615137457847595,0.6573376655578613,0.34903410374592647,0.945717971672694,-0.5698927160800966,None
312,15.563,0.2322235107421875,-0.94549560546875,0.1946258544921875,-0.00167024375118896,0.006800380038022968,-0.0013998264699667529,-0.6148112416267395,-0.30453112721443176,0.365295946598053,0.2016181320518396,0.9406600780385532,-0.23389375449337646,None
313,15.613,0.2304840087890625,-0.8899993896484375,0.24041748046875,-0.012060556432031272,0.04657107414836714,-0.012580346053828795,-0.25397634506225586,0.0990794450044632,-0.17126628756523132,0.2607847912674135,0.9423296603278365,-0.24254456522109377,None
314,15.663,0.2040252685546875,-0.9186859130859375,0.198822021484375,-0.008094016773437795,0.03644577577431507,-0.007887595434739214,-0.13793736696243286,-0.5323291420936584,-0.0033457293175160885,0.2115230823655091,0.9330887825301162,-0.2121192853281253,None
315,15.713,0.1419525146484375,-0.9659576416015625,0.235107421875,0.0005994919298862866,-0.004079419178915633,0.000992902467557344,0.04352111369371414,-0.37089043855667114,0.15834569931030273,0.23648904604307594,0.9262592599460099,-0.1413530227185512,None
316,15.762,0.13690185546875,-0.979248046875,0.3098907470703125,0.00478214018964801,-0.03420626714342967,0.010824842299549442,-0.039079491049051285,-0.21675653755664825,-0.05413966625928879,0.3017107716950318,0.9221203062683729,-0.132119715279102,None
317,15.812,0.154388427734375,-0.9954681396484375,0.1994781494140625,0.0040485725762865465,-0.026104450119031175,0.005230973442359121,-0.3610897660255432,0.0978890135884285,0.013698501512408257,0.19648029729908026,0.9240029327106772,-0.15033985515808845,None
318,15.862,0.16522216796875,-0.970184326171875,0.2415008544921875,0.002176691840721945,-0.012781531272329505,0.0031816126489754293,0.05523955449461937,0.06482000648975372,0.09484715014696121,0.24155155067685105,0.9252373887905264,-0.16304547612802806,None
319,15.912,0.184539794921875,-0.8877410888671875,0.3096771240234375,-0.008061607397096243,0.03878090431252379,-0.013528222434601,0.18667852878570557,-0.06947814673185349,0.034331340342760086,0.3293721563182938,0.923913847413114,-0.19260140231897124,None
320,15.962,0.102783203125,-0.971649169921875,0.2564697265625,0.0010347708790658106,-0.009782087297676934,0.0025820114215174272,0.026257969439029694,-0.056288305670022964,0.21585986018180847,0.25521222548841915,0.9228333927918461,-0.10174843224593419,None
321,16.012,0.10626220703125,-0.9737396240234375,0.21826171875,0.0003751650206193641,-0.00343784546106074,0.0007705859355165157,-0.04899577051401138,0.026219086721539497,0.03587677329778671,0.21872074482937462,0.923337578396959,-0.10588704201063064,None
322,16.062,0.1479949951171875,-0.951416015625,0.2723846435546875,0.00009524246530309699,-0.0006122856167211088,0.0001752936641014613,-0.0018269284628331661,0.14742140471935272,0.06564026325941086,0.2752363003210675,0.9261428806438483,-0.1478997526518844,None
323,16.111,0.1092071533203125,-1.029510498046875,0.25433349609375,0.006768070912584925,-0.0638035132698207,0.015762219641045294,0.07857736945152283,0.0114971324801445,0.03199867904186249,0.23983297065203718,0.9263595479209391,-0.10243908240772757,None
324,16.161,0.0651092529296875,-1.411773681640625,0.065948486328125,-0.046960774677844805,-0.44537533246835537,-0.16538361181037142,-0.14478754997253418,0.21403132379055023,-0.1937372386455536,0.23279865718106638,0.9303370686446644,-0.1120700276075323,None
325,16.211,0.057220458984375,-1.5877532958984375,-0.33392333984375,-0.101035403997499,-0.6318143894816897,-0.581180066811116,0.3630354702472687,0.95713210105896,-0.9323609471321106,0.2504123894814255,0.946814500867394,-0.158255862981874,None
326,16.261,0.50555419921875,-1.163726806640625,0.195770263671875,0.2541811929751207,-0.2441829725279896,-0.10630712521626134,1.2859035730361938,2.556321382522583,-1.9034909009933472,0.3120987908343975,0.9801077416196273,-0.2513730062436293,None
327,16.311,1.0419921875,-0.3228912353515625,0.243133544921875,0.7075998793178455,0.5114708697695859,-0.19506921838116126,3.3239688873291016,1.511461615562439,-1.7372359037399292,0.46496919480364507,0.9922946592911106,-0.3343923081821545,None
328,16.361,1.5758056640625,0.56549072265625,1.0703887939453125,1.2489182598068707,1.2438826273076322,0.41241535326363354,5.730408668518066,0.8425858020782471,0.15904371440410614,0.6962215616670588,0.9966324809457408,-0.3268874042556293,None
329,16.411,2.1555633544921875,0.8497161865234375,2.157623291015625,1.9198412040116175,1.434213612956373,1.381222733142248,3.107327938079834,1.4992321729660034,1.9009313583374023,0.7989135489876217,0.9999745908044335,-0.2357221504805699,None
330,16.46,2.450164794921875,2.3038177490234375,0.9909820556640625,2.477511726140094,2.905955520266915,0.1930583439002853,-0.022970562800765038,-1.0750457048416138,5.306238651275635,0.7982222446965659,0.9981473241325903,0.02734693121821898,None
331,16.51,-4.3395233154296875,4.5231475830078125,-0.9281158447265625,-3.6624328826291013,4.788244979377585,-1.614608318281723,5.55875301361084,-3.010624408721924,14.329026222229004,0.9328613140440887,0.9777355477408562,0.677090432800586,None
332,16.56,-5.83905029296875,-0.5748291015625,-0.12310791015625,-4.972510642155204,-0.32080904336748056,-0.552738965368204,-3.3088295459747314,7.552324295043945,6.08850622177124,0.860797362612756,0.9862198819382776,0.8665396508135458,None
333,16.61,-1.044708251953125,-1.031280517578125,3.3392181396484375,-0.13603430700057406,-0.9117263689791136,2.939195056168079,4.870879650115967,-3.8648126125335693,1.8373981714248657,0.958124248567324,0.9996345323506306,0.9086739449525509,None
334,16.66,-1.5933837890625,0.184356689453125,0.7241973876953125,-0.7523839255655024,0.3988366357059182,0.22749065102524252,-2.344029664993286,-1.5238837003707886,-2.8193647861480713,0.91806709845684,0.9946764286493122,0.8409998634969976,None
335,16.71,-1.693603515625,0.757720947265625,0.859283447265625,-0.9607466931811721,1.0981973737138218,0.2702192055817477,-2.329259157180786,-3.119166612625122,-3.5323455333709717,0.8657834431719336,0.9665981131051863,0.7328568224438279,None
336,16.76,-0.9791107177734375,0.453125,0.7987823486328125,-0.36966472184396426,0.9903100388532112,0.21568046038530697,-4.40703821182251,-0.06516382098197937,-3.342994451522827,0.7354712423877866,0.9657579197952354,0.6094459959294732,None
337,16.809,-0.5946044921875,-0.1887664794921875,1.1392822265625,-0.16392610167170707,0.5466594698473928,0.6161524176424736,-4.161459922790527,0.22074782848358154,-4.202346324920654,0.5796417042650092,0.9685626305779677,0.43067839051579293,None
338,16.859,0.64898681640625,-0.1430511474609375,0.7573394775390625,0.8281153055432615,0.7793232910538795,0.415084631621627,-5.259566307067871,-0.9540055394172668,-5.302875518798828,0.34788159131246715,0.9555990556987821,0.17912848913701146,None
339,16.909,1.361083984375,-0.062896728515625,0.234771728515625,1.3501193263559388,0.9345258356167685,0.16386330282384753,-5.686767101287842,-0.08503739535808563,-3.8213083744049072,0.07091268851370269,0.9543375229144,-0.010964658019061203,None
340,16.959,2.040283203125,-0.1590728759765625,-0.4448089599609375,1.9364232741862972,0.8339522777155288,-0.3890043069681454,-2.54219651222229,-0.9879262447357178,-1.8616536855697632,-0.056108089243032136,0.9384232865713203,-0.10385992893870277,None
341,17.009,1.3614349365234375,-0.4053802490234375,0.052978515625,1.3449438583804842,0.5936272538800333,0.011601547584135244,1.9506397247314453,0.29877763986587524,1.7511147260665894,0.0413825955390046,0.9434795821383548,-0.01649107814295325,None
342,17.059,0.3540496826171875,-0.906036376953125,0.811431884765625,0.4393993055267777,0.08216688348461165,0.6842715217218772,1.7316136360168457,-0.29351815581321716,2.0389082431793213,0.12762606243288124,0.938514108468218,0.08534962290959021,None
343,17.109,0.458770751953125,-0.8519287109375,0.446319580078125,0.02823334279154871,-0.05242878982032029,0.027467081642147173,0.15326465666294098,-0.4753745198249817,0.3638511896133423,0.4640650917933986,0.9300438497387147,-0.4305374091615763,None
344,17.158,0.403228759765625,-0.8514556884765625,0.30908203125,-0.0034506896980116553,0.007286457876286456,-0.0026450151563960356,-1.041491985321045,0.028358137235045433,0.07129122316837311,0.3412182236460625,0.9305639224780469,-0.40667944946363666,None
345,17.208,0.4727630615234375,-0.8524322509765625,0.1877288818359375,-0.003492377528504398,0.006297055502369031,-0.0013867837437685493,-0.9353336095809937,-0.4337999224662781,-0.46189412474632263,0.2150735418876962,0.9224043123546104,-0.4762554390519419,None
346,17.258,0.645904541015625,-0.727508544921875,-0.27191162109375,0.006488260529136314,-0.007307991625517429,-0.0027314151341650272,-0.8377249836921692,0.5252214074134827,0.14429539442062378,-0.35010268555305246,0.9322277997056937,-0.6394162804864887,None
347,17.308,0.2015838623046875,-0.9912567138671875,0.5400238037109375,-0.42032803036331856,-0.24649715914853632,0.7820130667235246,0.870375394821167,0.2585394084453583,0.45114001631736755,-0.3090195525042603,0.9368276881882167,-0.6219118926680061,None
348,17.358,0.3730621337890625,-0.860626220703125,0.2565765380859375,-0.01056389395790902,0.02437010703971476,-0.007265404593326585,0.3880569338798523,-0.41076862812042236,-0.028251344338059425,0.28570137387963895,0.9294464479789842,-0.3836260277469715,None
349,17.408,0.262603759765625,-0.9573516845703125,0.2791748046875,0.007951103649203206,-0.028986646952623873,0.008452840927706151,-0.1374494731426239,0.4688524305820465,0.2290496975183487,0.27995123157108454,0.937839596154821,-0.2546526561164218,None
350,17.457,0.317657470703125,-0.9413909912109375,0.2704315185546875,0.009158579643220477,-0.027141827797506513,0.007796978913286512,0.2999960482120514,-0.14135153591632843,-0.37485271692276,0.27610147109695193,0.935363257005997,-0.3084988910599045,None
351,17.507,0.374481201171875,-0.9054718017578125,0.306732177734375,0.009753693641377348,-0.023583812825889283,0.007989110487285622,0.1630653589963913,0.08744382858276367,-0.09889382123947144,0.32084467641046444,0.9369007058311345,-0.36472750753049765,None
352,17.557,0.3468017578125,-0.85723876953125,0.386138916015625,0.0007316889373487068,-0.0018086186422144879,0.000814683221073198,0.15796859562397003,0.15368489921092987,-0.2270994633436203,0.41070205951194344,0.9395593967015329,-0.3460700688751513,None
353,17.607,0.4925994873046875,-0.7684783935546875,0.3740081787109375,-0.006763377202571641,0.010551186880187857,-0.005135121847791468,-0.18245849013328552,0.03642299026250839,-0.01176105160266161,0.43761125267663636,0.9401813743023703,-0.49936286450725914,None
354,17.657,0.445770263671875,-0.8671875,0.318267822265625,0.011160819761079577,-0.021711908970413862,0.007968521208208457,-0.15071840584278107,0.08467360585927963,0.08173268288373947,0.34454002397948735,0.9416152501775185,-0.4346094439107954,None
355,17.707,0.528045654296875,-1.0531158447265625,0.25787353515625,0.10144573127494733,-0.2018385109328127,-0.04764145080465182,-0.14352227747440338,0.10282517969608307,0.1774892956018448,0.33779447840265764,0.9433338127336458,-0.4265999230219277,None
356,17.757,0.822601318359375,-1.3260498046875,-0.0619964599609375,0.3878945458127168,-0.4832626874909177,-0.37939194983050406,0.3120391070842743,0.6361538171768188,-0.17965072393417358,0.35243764111661574,0.9534101074510107,-0.4347067725466582,None
357,17.806,0.9827880859375,-1.0800323486328125,-0.3953857421875,0.572511595181584,-0.27061527254846485,-0.8155252405402211,2.372157096862793,1.3290561437606812,0.5391085147857666,0.460698882497736,0.9713383132148147,-0.410276490755916,None
358,17.856,1.045074462890625,-0.0513763427734375,0.013397216796875,0.6930158765643292,0.5368892392711399,-0.714612643559209,8.247718811035156,1.1852952241897583,1.259752631187439,0.777806622842755,0.9837120532645369,-0.35205858632629583,None
359,17.906,1.77001953125,0.4569091796875,1.7573089599609375,1.4767725189326957,0.7772099858908181,0.8565239782297369,6.759820938110352,1.674926996231079,1.2429637908935547,0.9422075249323477,0.9953004014255158,-0.29324701231730427,None
360,17.956,1.657867431640625,0.3472747802734375,0.975738525390625,1.5086473185352727,0.5946285423389743,0.01837262134094997,1.775941252708435,2.18994402885437,2.9568378925323486,0.9682059340502649,0.9999217542737903,-0.14922011310535235,None
361,18.006,1.143310546875,1.6026153564453125,0.53326416015625,1.1810806556584559,1.7690071953263857,-0.4520719118700719,1.7109992504119873,0.8159800171852112,3.7511720657348633,0.9860396558227768,0.9985794257564946,0.03777010878345587,None
362,18.056,-6.1585540771484375,3.642974853515625,-2.015838623046875,-5.60173513446842,3.564890874397013,-2.842794218757861,5.228682994842529,0.7426203489303589,11.055441856384277,0.9955716979010717,0.9959131122391983,0.5568189426800171,None
363,18.106,-2.4728851318359375,-0.665924072265625,2.269256591796875,-1.901869940839919,-0.7008493116821022,1.4490603474117387,-1.031768798828125,4.926273822784424,0.3438151478767395,0.9990946361867903,0.9438323793170093,0.5710151909960186,None
364,18.155,-2.4112548828125,-0.028228759765625,1.4455718994140625,-2.065322174514644,0.08428693231364388,0.5140834237120635,-3.2552952766418457,-4.147402286529541,-5.090185165405273,0.9927836054289393,0.9916416465235157,0.345932708297856,None
365,18.205,-1.9997100830078125,1.225555419921875,0.813812255859375,-1.9430200509772357,1.626628660096701,-0.10047790392800804,-5.863691806793213,-3.1872317790985107,-5.9302449226379395,0.9157628648790823,0.9995506856779729,0.0566900320305767,Straight
366,18.255,-1.17816162109375,0.609619140625,0.6028900146484375,-1.4042667481950524,1.1673531265915709,-0.19573960688857062,-3.9246695041656494,-3.147331953048706,-5.695956707000732,0.8198616558980166,0.9825022207141288,-0.22610512710130232,None
367,18.305,0.077606201171875,0.0305328369140625,0.3490142822265625,-0.28563997511584344,0.7279852316957683,-0.26873354045322284,-4.7259955406188965,0.7474870085716248,-2.873446226119995,0.6630378153775421,0.9887754851655276,-0.36324617628771844,None
368,18.355,0.9639892578125,-0.3982696533203125,0.710205078125,0.4497641876769157,0.3204337736683317,0.242190162466501,-2.953117609024048,1.8389066457748413,-3.3670830726623535,0.5456911736336952,0.9983170119456489,-0.5142250701355843,None
369,18.405,1.5032806396484375,-0.420166015625,0.70172119140625,0.8903324042329106,0.2903834108834368,0.3561579219612414,-2.4911952018737793,0.272790789604187,-2.3936543464660645,0.43735372875689177,0.999015119483362,-0.6129482354155269,None
370,18.455,1.507965087890625,-0.2899017333984375,0.7669830322265625,0.8467908401355775,0.4042020258697875,0.4822575759089635,-1.2676090002059937,0.00911227148026228,-1.2519257068634033,0.37951635574612963,0.9990352318506529,-0.6611742477550475,None
371,18.504,1.0817108154296875,-0.3306732177734375,0.43212890625,0.4240194337963765,0.3842348973641506,0.19475065653935886,-1.3737436532974243,0.5702301859855652,0.09265883266925812,0.3151230466971182,0.9998811371221074,-0.657691381633311,None
372,18.554,0.887969970703125,-0.5001373291015625,0.4975738525390625,0.24473306563515207,0.2264933771321207,0.25621498960481204,0.0021875204984098673,0.010877680964767933,0.3806312382221222,0.31522684821849833,0.9998893747839869,-0.6432369050679729,None
373,18.604,0.71710205078125,-0.62286376953125,0.2734375,-0.008405563259848314,0.007300942468869809,-0.003205117320973727,0.7124805450439453,-1.1159923076629639,0.734316885471344,0.40197171402935483,0.9975036151202396,-0.7255076140410983,None
374,18.654,0.429901123046875,-0.897491455078125,0.26226806640625,0.012164974262889927,-0.025396445524052735,0.007421437411462617,0.8519359230995178,-0.6193154454231262,0.5535247325897217,0.28049251243660045,0.9948390990376581,-0.4177361487839851,None
375,18.704,0.492340087890625,-0.7979888916015625,0.3107147216796875,-0.006085885219879572,0.009864053162587094,-0.0038407884687416405,0.533479630947113,-0.5035569071769714,-0.48115649819374084,0.3628374711926575,0.9919693867984517,-0.49842597311050457,None
376,18.754,0.5846710205078125,-0.5802154541015625,0.547393798828125,-0.0065001492614781275,0.006450613974677055,-0.006085715338003395,-0.04097859188914299,0.42539072036743164,-0.8212541341781616,0.6862341763134855,0.9944349450241703,-0.5911711697692906,None
377,18.803,0.6980743408203125,-0.4710235595703125,0.5534210205078125,0.08450327670199187,0.11755313569658832,0.02701051238187724,-0.5319664478302002,0.11047777533531189,-0.5612987279891968,0.6666466206329121,0.9950017255855051,-0.6135710641183206,None
378,18.853,0.6570281982421875,-0.6058349609375,0.4423828125,-0.0018392902044988002,0.0016959794300707154,-0.0012384101258465785,-0.07381723076105118,-0.6424404978752136,0.001788312685675919,0.5897187152679987,0.9912813552796398,-0.6588674884466863,None
379,18.903,0.3813018798828125,-0.858428955078125,0.2822418212890625,-0.007467705608382558,0.016812124619488222,-0.005527638186331785,0.25085458159446716,-0.29740583896636963,0.4720098674297333,0.31233965373033157,0.9892124884440471,-0.38876958549119506,None
380,18.953,0.454620361328125,-0.898345947265625,0.532562255859375,0.05613933565394058,-0.019572206759145727,0.269941645141364,-0.5450891256332397,0.20710498094558716,-0.2112872153520584,0.28633593300803994,0.9906763414394102,-0.3984810256741844,None
381,19.003,0.560882568359375,-0.696319580078125,0.3500823974609375,-0.023240855453642295,0.028852853739907203,-0.014506092460768338,-1.4219272136688232,0.8691484332084656,-0.4698716402053833,0.44918600422851124,0.9956596430839156,-0.5841234238130173,None
382,19.053,0.6632080078125,-0.506500244140625,0.37579345703125,-0.061443719934944796,0.04692533681944966,-0.034815846092348335,-0.44213587045669556,0.5491379499435425,-0.07798401266336441,0.5958499443604259,0.9978394324015991,-0.7246517277474448,None
383,19.103,0.6636505126953125,-0.436309814453125,0.5545806884765625,-0.043583989696422076,0.1296576163619214,0.13090601861378787,0.08542515337467194,-0.12984268367290497,0.49900129437446594,0.5992747277429987,0.9973918750135154,-0.7072345023917346,None
384,19.152,0.5732269287109375,-0.4804534912109375,0.621337890625,-0.10414881146383359,0.1254984781332097,0.2042236167495659,-0.7944483757019043,0.09865973144769669,0.8277876973152161,0.5670108410483421,0.9977357838719537,-0.6773757401747711,None
385,19.202,0.4939727783203125,-0.6822052001953125,0.3589935302734375,-0.0455453356776675,0.06290076337728456,-0.033099963317841485,-2.182068109512329,-0.11880521476268768,1.121732473373413,0.4656836160166312,0.9973186675209865,-0.53951811399798,None
386,19.252,0.2772216796875,-0.99310302734375,0.0056304931640625,0.008357753508170807,-0.02994033626848247,0.0001697496171572492,-2.089738607406616,-0.06423304975032806,1.0895713567733765,0.005669505093659178,0.9970784920960788,-0.2688639261793292,None
387,19.302,0.2515716552734375,-1.162353515625,-0.256134033203125,0.021425805974296636,-0.19028295988270338,-0.21018054901269967,-1.0581636428833008,-0.12896063923835754,0.7997155785560608,-0.04722107987820061,0.9965652427545459,-0.23014584929914086,None
388,19.352,0.1718292236328125,-1.1787872314453125,-0.1149444580078125,-0.041361548054136416,-0.2027957633464873,-0.07033112966500557,0.031193340197205544,-0.018035460263490677,0.3477579653263092,-0.04566309593278238,0.996490160538361,-0.21319077168694892,None
389,19.402,0.2629241943359375,-1.0103302001953125,0.123748779296875,0.012827386944496366,-0.0492913801727084,0.006037380774177856,0.2770686149597168,0.00935994554311037,0.03963742405176163,0.12157494877907855,0.9965292274510429,-0.25009680739144113,None
390,19.452,0.2647705078125,-0.91796875,0.228912353515625,-0.004734907221907114,0.01641609142864986,-0.004093653650475593,0.1519213616847992,0.013400760479271412,0.030673490837216377,0.24195875349840135,0.996584780135382,-0.2695054150344071,None
391,19.501,0.216156005859375,-0.924163818359375,0.1813507080078125,-0.007543946875153362,0.03225375451366186,-0.006329225512579667,-0.03869546577334404,0.0452316589653492,0.20359919965267181,0.1925597719826514,0.9967689835353231,-0.22369995273452836,None
392,19.551,0.200347900390625,-0.9871063232421875,0.158599853515625,0.0038596420467734704,-0.019016306446901776,0.0030553784793724836,-0.01655474118888378,-0.14138562977313995,0.08911922574043274,0.15863691487927503,0.9961762642348979,-0.19648825834385153,None
393,19.601,0.1876983642578125,-1.0234832763671875,0.0695953369140625,0.007717039148487176,-0.042079538320849985,0.0028613458707624356,-0.021031782031059265,-0.05242699012160301,-0.04524630680680275,0.06784184654517944,0.9959438245895694,-0.17998132510932532,None
394,19.651,0.296966552734375,-1.0421905517578125,0.063262939453125,0.023395634790863595,-0.08210591161498149,0.0049839842689816324,0.5238312482833862,-0.2632569372653961,-0.1640336811542511,0.0605903664702373,0.9946732249219428,-0.2735709179435114,None
395,19.701,0.370880126953125,-1.1343536376953125,0.1287994384765625,0.09197939089257307,-0.1814094943077892,0.010006176848211326,1.2678385972976685,-0.4484187960624695,-0.11091213673353195,0.1237017551948849,0.9921123019567889,-0.27890073606055193,None
396,19.751,0.2054443359375,-0.9352264404296875,0.2149810791015625,-0.003901645408132176,0.017761122156107256,-0.0040827601125353885,1.5499035120010376,-0.49600842595100403,-0.45259249210357666,0.22402793225603856,0.9886987435362554,-0.20934598134563218,None
397,19.801,0.37921142578125,-0.788482666015625,0.445556640625,-0.007010414653117303,0.014576539786946063,-0.008236926922220722,0.8515260219573975,0.034813106060028076,-0.546186625957489,0.4919673165385651,0.9889581975928314,-0.3862218404343673,None
398,19.85,0.47222900390625,-0.7540435791015625,0.41131591796875,-0.009546353776954009,0.015243381303985393,-0.008314964211308229,0.2687782049179077,-0.3632972538471222,-0.45351794362068176,0.4788695559899491,0.9861032534329106,-0.481775357683204,None
399,19.9,0.464691162109375,-0.7223968505859375,0.315673828125,-0.04310130313931548,0.06700417004415216,-0.029279561284105915,0.1175876185297966,-0.18081319332122803,-0.3220784366130829,0.40041976219590936,0.984561017967962,-0.5077924652486905,None
400,19.95,0.5127716064453125,-0.7281494140625,0.2823638916015625,-0.03607409342349499,0.05122617878795366,-0.019864636179192985,0.21997790038585663,-0.28950637578964233,-0.13415966928005219,0.3615503846088658,0.9819241737073062,-0.5488456998688075,None
401,20,0.5116729736328125,-0.81231689453125,0.23712158203125,-0.005750886130209243,0.009129936898810698,-0.0026650991698757287,0.2677973508834839,-0.17779795825481415,-0.00014807176194153726,0.28021325810025527,0.9802027623737463,-0.5174238597630217,None
402,20.05,0.3435211181640625,-0.947540283203125,-0.1006011962890625,0.004373916999374339,-0.012064651438153606,-0.0012809147948685262,0.25108441710472107,0.5408906936645508,0.013143498450517654,-0.10557751019798534,0.9851983864621344,-0.33914720116468816,None
403,20.1,0.553131103515625,-1.046905517578125,0.272216796875,0.21670139684414463,-0.10804828073184747,0.19899015356592623,3.6722512245178223,0.6328328251838684,0.05774398893117905,0.07775934588225701,0.9901282831464723,-0.33642970667148037,None
404,20.15,1.625732421875,-0.5260162353515625,0.906585693359375,1.2576531182859905,0.3800523130711835,0.697881568271902,2.9710733890533447,1.6963415145874023,-0.6763885617256165,0.22446266087180783,0.9984430204614888,-0.36807930358900953,None
405,20.199,2.4784698486328125,0.63616943359375,1.285980224609375,2.1313909523521275,1.502333971950225,0.9264037622953127,3.3418991565704346,1.7093768119812012,0.44975757598876953,0.38341083887300326,0.9995602118488717,-0.3470788962806851,None
406,20.249,2.8505401611328125,1.5872344970703125,2.221893310546875,2.6845919698600182,2.4482660639122313,1.7411794260843616,2.3141329288482666,3.2762136459350586,3.75470232963562,0.48747295412319386,0.9813430952882671,-0.16594819127279437,None
407,20.299,0.4571685791015625,2.3024444580078125,0.8398284912109375,0.7768808863572976,3.1217595922931682,0.36390123697959564,0.34104013442993164,-1.3947429656982422,9.84290599822998,0.5022901193603745,0.9923549234527301,0.3197123072557351,None
408,20.349,-7.246124267578125,1.7767181396484375,-1.936737060546875,-6.563527932861069,2.4323977100862813,-2.2594544984725093,-1.3773384094238281,-0.09464342147111893,8.51767349243164,0.4415973870064265,0.9929278395709924,0.6825963347170556,None
409,20.399,-0.5752716064453125,-0.055145263671875,4.6993408203125,0.1883835364002402,0.2872342410529692,4.151977049544001,11.089094161987305,5.604677677154541,2.352924108505249,0.8478053169105569,0.9213590238444277,0.7636551428455527,None
410,20.449,-2.7540283203125,-1.1708831787109375,0.3343353271484375,-2.0301191403958123,-0.7263849263727795,-0.1932789286300356,-2.8228373527526855,-5.297172546386719,-1.1900756359100342,0.7647744085800516,0.9909852086232656,0.7239091799166876,None
411,20.498,-2.176025390625,0.87646484375,0.184478759765625,-1.706402202540225,1.4963388252770378,-0.44417878472017025,-1.5651592016220093,-1.857177495956421,-6.411760330200195,0.7120637379498905,0.9991383145828384,0.46962318808477505,Straight
412,20.548,-1.059478759765625,0.77679443359375,0.459320068359375,-0.8596541785504359,1.5046285167062055,-0.19667359334935353,-1.1780543327331543,-2.8888766765594482,-5.7537007331848145,0.6694962714162951,0.9947076550162538,0.19982458121518903,None
413,20.598,-0.195892333984375,0.2996673583984375,0.906280517578125,-0.20577461972411892,1.1390211717099232,0.362784872234001,-3.17805814743042,0.3575773239135742,-4.221226692199707,0.5435221860640087,0.9963855571300464,-0.009882285739743911,None
414,20.648,0.7382354736328125,0.2283477783203125,1.2975006103515625,0.5157804677251665,1.1157240856984845,0.8936726030879389,-2.951127529144287,-0.6473667621612549,-4.28898811340332,0.41420680478167093,0.9931145609981594,-0.22245500590764605,None
415,20.698,1.4702301025390625,0.165283203125,1.8505859375,1.1443476597677944,1.0961383968077838,1.6853308562249667,-5.0274271965026855,-0.4349463880062103,-2.1522624492645264,0.17479720862603534,0.9903322885487921,-0.32588244277126815,None
416,20.748,1.2324371337890625,0.1169586181640625,0.97637939453125,0.8580215448639168,1.037096198773647,1.0910955639223912,-5.994653224945068,-2.304521322250366,-1.0364292860031128,-0.12371508030750501,0.967816933030834,-0.3744155889251457,None
417,20.798,1.2098846435546875,-0.3530120849609375,0.0885772705078125,0.8229419864959179,0.49569605978766884,0.4490906061636216,-5.5530104637146,-1.600647211074829,-0.27094441652297974,-0.3909682875993729,0.9445999938732225,-0.3869426570587696,None
418,20.847,1.353851318359375,-0.659423828125,-0.9329071044921875,0.9887834674574724,0.15220073743047635,-0.47684676986007934,-2.205162525177002,-1.3173283338546753,0.4721595346927643,-0.489870766678735,0.9209484194361045,-0.36506785090190264,None
419,20.897,0.0272064208984375,-1.0242156982421875,-0.8088836669921875,-0.31075788277832006,-0.16550122283023772,-0.42366998712312554,1.8051578998565674,-2.4874486923217773,0.5790519118309021,-0.4092971633611435,0.8654935928496854,-0.33796430367675756,None
420,20.947,0.4949493408203125,-0.508544921875,-0.3257293701171875,-0.1389281875868753,0.1427443547768099,0.09142954096917177,1.841715931892395,-0.26568466424942017,-0.567111074924469,-0.539359810421933,0.8587630844655443,-0.6338775284071878,None
421,20.997,0.95794677734375,-0.8429412841796875,0.1017608642578125,0.3371272425041937,-0.1614884403221032,0.48932392591359986,1.0513360500335693,1.1905409097671509,0.33537426590919495,-0.49436995552211754,0.887724067516567,-0.6208195348395563,None
422,21.047,0.4312744140625,-0.8979644775390625,0.2320098876953125,0.009623246041837175,-0.02003673953849683,0.005176954998094008,0.1944219470024109,-0.18145102262496948,0.24280865490436554,0.25015814813016807,0.883510806259434,-0.4216511680206628,None
423,21.097,0.5540618896484375,-0.7648773193359375,0.0246429443359375,-0.03237697245685489,0.04469611132562479,-0.0014400267279287109,-0.4734943211078644,0.38128769397735596,-0.3081591725349426,0.032201457472625414,0.8922796770934699,-0.5864388621052924,None
424,21.147,0.587432861328125,-0.8174285888671875,0.047119140625,0.004496646194068865,-0.006257203835587699,0.00036068480043836837,0.05883881449699402,0.13525955379009247,-0.03111957013607025,0.057547599526580666,0.8953126184553868,-0.5829362151340561,None
425,21.196,0.50665283203125,-0.7769927978515625,0.0432586669921875,-0.038960223414522654,0.05974863078216208,-0.0033264737194365693,0.7474302649497986,-0.2971547245979309,0.003725229762494564,0.0555883906041518,0.8885958372259001,-0.5456130554457727,None
426,21.246,0.54437255859375,-0.7708282470703125,0.1160736083984375,-0.028178511810937112,0.03990060211775748,-0.006008351254226843,0.782366931438446,0.04073411226272583,0.2230280190706253,0.14890421647906782,0.8895282121020383,-0.5725510704046871,None
427,21.296,0.4746856689453125,-0.8102874755859375,0.1336822509765625,-0.02574279235447574,0.04394289441639809,-0.007249754213171727,0.5118440985679626,0.22312016785144806,0.27451545000076294,0.1627807856825194,0.8945697130246919,-0.5004284612997882,None
428,21.346,0.5523223876953125,-0.8657073974609375,-0.0863189697265625,0.016354820754619137,-0.02563446571575867,-0.0025559914083731206,0.4554024040699005,0.36825791001319885,0.35029035806655884,-0.09921718937404277,0.9026468538424653,-0.5359675669406934,None
429,21.396,0.4080352783203125,-0.81292724609375,-0.4466705322265625,0.005371554844321003,-0.01070172977398176,-0.0058801662225724805,2.652658462524414,0.017770208418369293,0.5612002015113831,-0.4815549662985614,0.9030288963775689,-0.4026637234759915,None
430,21.446,0.33935546875,-1.0800323486328125,0.64794921875,-0.041845573289413074,-0.20661412701055015,0.9509778901431047,3.369537115097046,0.9270884394645691,0.46659940481185913,-0.3277785171574141,0.9219646795933919,-0.3812010420394131,None
431,21.496,0.5803680419921875,-1.169036865234375,0.531768798828125,0.15330464396179289,-0.3115647798130027,0.8187504651168543,0.21972224116325378,2.6157350540161133,-1.002950668334961,-0.31737976574049087,0.9645967611554142,-0.4270633980303946,None
432,21.545,1.0862579345703125,-0.64410400390625,0.7922515869140625,0.5889386380888634,0.20015710642962348,0.9919931572534249,1.8129866123199463,2.662931203842163,-1.5852700471878052,-0.23023171153546892,0.9910701713575322,-0.4973192964814491,None
433,21.595,0.9112396240234375,0.2170867919921875,1.37420654296875,0.32964056075493753,1.024774952313146,1.47106915331221,2.2592010498046875,3.3733842372894287,-2.0037381649017334,-0.11907254743412433,0.9993900258410915,-0.5815990632685,None
434,21.645,3.2867431640625,1.872406005859375,2.451751708984375,2.699160730763916,2.6779987854973397,2.5276935121898085,0.5073052644729614,2.146657943725586,-0.14749650657176971,-0.09385214110888195,0.9898977555002068,-0.587582433298584,None
435,21.695,0.749176025390625,2.61114501953125,0.711029052734375,0.5500738432481379,3.5895121617944152,0.7672078388186873,0.7326497435569763,-0.7214857339859009,8.552523612976074,-0.05732653584968426,0.9943673347384598,-0.1991021821424871,None
436,21.745,-7.0121612548828125,3.772918701171875,-2.2952880859375,-6.4794441815864765,4.61003958840299,-2.419550469545644,4.094441890716553,-0.7205911874771118,15.244991302490234,0.14683132767788412,0.9975398957997293,0.5327170732963362,None
437,21.795,-4.187896728515625,-2.091766357421875,2.4969482421875,-3.4653806744728923,-1.453316472624603,2.2317081693235576,4.927692413330078,4.59713888168335,4.912537097930908,0.38365297348836513,0.9553318997538308,0.7225160540427327,None
438,21.844,-2.0399627685546875,-0.8505706787109375,0.48333740234375,-1.3333314215731717,-0.19367021597692125,0.22036607021242427,-0.259305864572525,-4.953149318695068,-0.4541744291782379,0.3716479090829516,0.9986296296944054,0.7066313469815158,None
439,21.894,-0.7631988525390625,0.5187530517578125,0.62249755859375,-0.1774969380002296,1.2963385143038921,0.39377476623901997,-1.8941384553909302,0.3791619539260864,-3.1796047687530518,0.28219038105730315,0.9974580802006381,0.5857019145388329,None
440,21.944,-1.8242340087890625,0.1309814453125,0.6849822998046875,-1.3373393721807996,0.9653746628588691,0.4266771094682852,0.2827816307544708,-5.097591876983643,-2.3442962169647217,0.2957261697314792,0.9831994878645717,0.486894636608263,Straight
441,21.994,-1.22698974609375,0.4981842041015625,1.004364013671875,-0.8981374555405279,1.4373549340358327,0.9052957996341258,-3.9023895263671875,-1.2601615190505981,-3.4688591957092285,0.10490276199918815,0.9697549478291609,0.328852290553222,None
442,22.044,-0.2698211669921875,0.1068267822265625,0.69775390625,-0.1208763065439698,1.0919187269330428,0.783831133322354,-3.8450927734375,-0.24918638169765472,-3.7117373943328857,-0.08704820603676992,0.9666386795806848,0.1489448604482177,None
443,22.094,0.646240234375,-0.209320068359375,1.1918487548828125,0.6352878972736671,0.7597061700197282,1.4385635611771734,-3.2429111003875732,-1.0371955633163452,-3.209074020385742,-0.24672960480117315,0.9520615052228165,-0.010952337101332902,None
444,22.144,1.0084228515625,-0.2654876708984375,0.967803955078125,0.865267004273564,0.613163744164929,1.423301588654997,-4.579184055328369,-0.23016129434108734,-2.6539363861083984,-0.46023801223607913,0.9484781464793053,-0.143155847288936,None
445,22.193,1.208251953125,-0.3782196044921875,0.6437530517578125,0.9500214209882503,0.36467950638635516,1.2613434526937741,-4.3057684898376465,0.04085821658372879,-2.350815773010254,-0.6392723945039229,0.9491234478902175,-0.25823053213674974,None
446,22.243,1.3090667724609375,-0.3547515869140625,0.2048797607421875,0.988098977171789,0.3017743656890396,0.8874875162986362,-2.226412534713745,-0.8822288513183594,-1.3112201690673828,-0.7207421438970322,0.9343138103225689,-0.3209677952891486,None
447,22.293,0.5988311767578125,-0.4261474609375,0.6001739501953125,0.3109368723047216,0.24386540611809426,1.2844250937408774,0.17921769618988037,-1.421669363975525,0.6944770216941833,-0.7145015757631181,0.9066378465248489,-0.2878943044530909,None
448,22.343,0.327239990234375,-0.5937042236328125,0.3287506103515625,-0.10709711981540881,0.1943039184415618,-0.10759150640786141,0.14568902552127838,-1.9628090858459473,0.4853065013885498,0.48442067745103207,0.8609352104809058,-0.4343371100497838,None
449,22.393,0.82989501953125,-0.72296142578125,0.1312255859375,0.3939491836864762,0.08570238267731667,-0.263760582299931,-1.0268301963806152,-1.5623162984848022,-0.03573509305715561,0.43888673360579006,0.818611543339955,-0.4359458358447738,None
450,22.443,0.31988525390625,-0.8730010986328125,-0.157989501953125,-0.019303324783677134,0.052680839574915206,0.009533801984840107,-0.526979923248291,-1.2809133529663086,0.6990355849266052,-0.17808018205992873,0.7801738753628011,-0.33918857868992713,None
451,22.493,0.329010009765625,-0.956085205078125,0.0315704345703125,0.003774124885516761,-0.010967401775192731,0.00036214935479702767,0.585482656955719,-0.42748236656188965,0.04537893459200859,0.03300253677614267,0.7666258361196732,-0.32523588488010824,None
452,22.542,0.4227447509765625,-0.947479248046875,0.1655120849609375,0.020372290645335134,-0.04565952049563049,0.007976113937193191,-0.09078742563724518,0.10869505256414413,0.08706006407737732,0.17208093051669032,0.770104119805879,-0.40237246033122737,None
453,22.592,0.412628173828125,-0.8926239013671875,0.1441650390625,-0.0025354665563059875,0.0054848849226147856,-0.0008858474973732211,-0.013344300910830498,0.002855707658454776,-0.2931424081325531,0.15944095028084754,0.77019519735137,-0.415163640384431,None
454,22.642,0.5177764892578125,-0.792633056640625,0.1553192138671875,-0.021900961132903296,0.0335268713939173,-0.006569707463879665,-0.08665819466114044,0.18413707613945007,-0.1770954132080078,0.19229638931799103,0.7760346786508814,-0.5396774503907158,None
455,22.692,0.506439208984375,-0.789520263671875,0.205841064453125,-0.02093186112318568,0.032632008383123634,-0.008507707338107157,0.06383410841226578,0.24702869355678558,0.15348675847053528,0.2522833379026048,0.7837652154988385,-0.5273710701075607,None
456,22.742,0.3533477783203125,-0.8962554931640625,0.2518768310546875,-0.001498754637230204,0.003801543858314771,-0.001068356989107011,0.22302988171577454,-0.011025220155715942,0.31883203983306885,0.27055144138864673,0.783422731791191,-0.3548465329575427,None
457,22.792,0.41241455078125,-0.8714141845703125,0.2350921630859375,-0.00318810394854957,0.006736326342967058,-0.0018173419244970346,0.29355332255363464,-0.13588300347328186,0.22697216272354126,0.26046998434021995,0.7791821918197327,-0.41560265472979957,None
458,22.842,0.3776397705078125,-0.8989715576171875,0.274139404296875,0.0048000000857316705,-0.011426401270793973,0.0034844559998490343,-0.1829138845205307,0.2378104329109192,0.08861029148101807,0.2916868096577426,0.7865798840012886,-0.37283977042208083,None
459,22.891,0.488067626953125,-0.84552001953125,0.2166290283203125,0.00001030956966219243,-0.000017860122369928177,0.000004575906974502164,-0.26754435896873474,0.23856596648693085,0.17072619497776031,0.24819154244536631,0.7938893384249246,-0.4880573173834628,None
460,22.941,0.3816375732421875,-0.88018798828125,0.2222137451171875,-0.005905202898111583,0.013619436406967722,-0.003438385902411245,-0.16590560972690582,0.10965805500745773,0.1925521343946457,0.24478137397414523,0.7972113349776953,-0.3875427761402991,None
461,22.991,0.389801025390625,-0.87921142578125,0.1462249755859375,-0.0108991531658722,0.024583465333811838,-0.00408856904362892,-0.22351564466953278,0.11720332503318787,0.1563696265220642,0.16406028063799835,0.8007354103270529,-0.4007001785564972,None
462,23.041,0.36431884765625,-0.913726806640625,0.1142120361328125,-0.003573159201827214,0.008961631735794118,-0.0011201665532618449,-0.03074113465845585,0.1766037940979004,0.2441847026348114,0.12403065568062067,0.8059935685541899,-0.3678920068580772,None
463,23.091,0.3455047607421875,-0.8980712890625,0.0970611572265625,-0.011745396334655156,0.03052983468058401,-0.003299583362838046,0.36188364028930664,0.24443770945072174,0.20610949397087097,0.1074516076308606,0.8131676226665173,-0.35725015707684266,None
464,23.141,0.436798095703125,-1.0648651123046875,0.190704345703125,0.09047418395399881,-0.13317390012479968,0.08110857344180722,0.18866898119449615,0.39171716570854187,0.23344869911670685,0.11682551987471626,0.8244104795446452,-0.3463239117491262,None
465,23.19,0.3998870849609375,-1.82232666015625,-0.2351531982421875,0.03964069039043988,-0.8908332727779177,-0.2855774430991751,-1.260259985923767,1.7825336456298828,-0.2976468801498413,0.054053552299120365,0.8715165301391344,-0.3602463945704976,None
466,23.24,1.004180908203125,-1.2527313232421875,-0.5594024658203125,0.5783084503836602,-0.36508219376223694,-0.734649926869807,2.8168416023254395,1.8148311376571655,-1.4278786182403564,0.1936900020994712,0.9123664912749986,-0.42587245781946476,None
467,23.29,1.0810546875,0.670074462890625,0.3698272705078125,0.601102027521761,1.4351514870079567,-0.05947750625058873,6.328465461730957,3.5939056873321533,-1.213496208190918,0.48935087510177727,0.9708431391062372,-0.479952659978239,None
468,23.34,3.468353271484375,2.21697998046875,2.4384613037109375,3.0628438475540873,2.842566090864249,1.771974900560838,6.113942623138428,0.9892255663871765,1.6612937450408936,0.7291248929573327,0.9815076464468309,-0.40550942393028766,None
469,23.39,1.95928955078125,2.6761474609375,-0.1303558349609375,1.9392173469453164,3.2987328291563607,-0.9126502590193952,1.6310292482376099,0.6798067688941956,7.949250221252441,0.7824520623107931,0.9874459895195019,-0.02007220383593356,None
470,23.44,-6.2227783203125,4.4357757568359375,-1.1706390380859375,-5.610304320918752,4.560912791274403,-1.9511621464424893,10.264615058898926,0.9914437532424927,13.585201263427734,0.9873905854690324,0.9940600302229663,0.6124739993937479,None
471,23.49,-4.609619140625,-1.231170654296875,1.6856536865234375,-3.774678715240225,-1.1520933310993493,1.1410242133821056,0.2956918478012085,9.067898750305176,6.576760292053223,0.9896230331464747,0.941296507072091,0.8349404253847752,None
472,23.539,-0.7425689697265625,-0.4088897705078125,3.136505126953125,0.09535029209829093,-0.3912274785859445,2.590996782280966,2.236415147781372,-3.4112703800201416,0.10870304703712463,0.999476254830147,0.9849378274342826,0.8379192618248534,None
473,23.589,-1.935791015625,0.5496673583984375,0.3346405029296875,-1.1719802363587772,0.6441070357977796,-0.30385322515966007,-2.289581060409546,-6.045936107635498,-2.485257148742676,0.98923757171145,0.991753365109904,0.7638107792662228,None
474,23.639,-1.6285552978515625,1.18511962890625,0.676361083984375,-0.9529420579547574,1.4158736329191663,-0.02385269744823093,-3.4298882484436035,-2.50763201713562,-2.5480129718780518,0.9497563425531771,0.9679411477532924,0.6756132398968051,Straight
475,23.689,-1.0759429931640625,0.82012939453125,0.7874908447265625,-0.5542821868908774,1.3006120451625547,0.08250401815408959,-5.597897529602051,-0.009370865300297737,-3.8599941730499268,0.8263310860738047,0.9678233541726643,0.5216608062731851,None
476,23.739,-0.15777587890625,0.1954803466796875,1.4136810302734375,0.2098251821992665,0.9494564864148237,0.8692644245529647,-6.943653583526611,2.7988595962524414,-3.447366237640381,0.5854045352792904,0.9934609749319459,0.3676010611055165,None
477,23.789,0.166961669921875,-0.0658416748046875,1.602325439453125,0.32955201691753033,0.9084207562682027,1.446193781984903,-9.329476356506348,2.2941551208496094,-4.262255668640137,0.1582372156296014,0.9999999590891713,0.16259034699565536,None
478,23.839,1.1829376220703125,0.129486083984375,0.498260498046875,1.1253477149756688,1.0791546995339565,0.8061775700662279,-9.448923110961914,2.053274631500244,-4.418743133544922,-0.30842896415706683,0.9947053505934141,-0.05758990709464379,None
479,23.888,1.6768951416015625,-0.464935302734375,-0.01715087890625,1.471464552665103,0.3578133174093464,0.5128330653607643,-5.174393177032471,-0.15119804441928864,-2.9856374263763428,-0.5415339492293519,0.995453834734523,-0.20543058893645966,None
480,23.938,1.268035888671875,-0.7113800048828125,-0.484375,1.0542173280660179,0.10207121033684463,0.056530484902956424,-0.2910688519477844,-3.1062169075012207,-0.1715720146894455,-0.5537109410242592,0.9982052757034361,-0.21381856060585722,None
481,23.988,0.4650421142578125,-0.9567718505859375,-0.4035797119140625,0.28464950292679786,-0.08731211505313474,0.05630970312438566,2.005716323852539,-2.280287027359009,0.6819332838058472,-0.46755988184469893,0.9849113497678476,-0.18039261133101464,None
