Index,Time,Raw Acceleration X,Raw Acceleration Y,Raw Acceleration Z,Acceleration X,Acceleration Y,Acceleration Z,Angular Velocity X,Angular Velocity Y,Angular Velocity Z,Orientation X,Orientation Y,Orientation Z,Punch Type
0,0,-0.222442626953125,-0.670989990234375,-0.54840087890625,0.026185591982620077,0.07898787363449966,0.0645568785742463,-0.019960392266511917,-0.6182573437690735,-0.17284713685512543,-0.6328292328104306,-0.03090794400677207,0.24862821893574508,None
1,0.05,-0.2895660400390625,-0.6505279541015625,-0.663421630859375,0.007966986332420323,0.017898325779105217,0.018253076448383143,-0.37625032663345337,-0.45368146896362305,-0.12670494616031647,-0.7140111841283591,-0.05357128360720246,0.2975330263714828,None
2,0.1,-0.334869384765625,-0.656005859375,-0.727630615234375,-0.011430123111423385,-0.022391499717775876,-0.024836273156444877,-0.6261621713638306,-0.5669832825660706,-0.011386611498892307,-0.7427161260083738,-0.08185442196365281,0.3234392616542016,None
3,0.15,-0.4403839111328125,-0.65875244140625,-0.990020751953125,-0.13093683809947243,-0.04184088285677845,-0.2663753706238716,-0.5546397566795349,0.911774218082428,-0.2950071394443512,-0.7609976834741641,-0.03634938449222167,0.30944707303334007,None
4,0.2,-0.15277099609375,-0.592315673828125,-0.698760986328125,0.011732647086430126,0.04548920241720411,0.053664087163002305,-0.9768855571746826,1.1961015462875366,0.16161632537841797,-0.7628173341471226,0.02344553494722609,0.16450364318018013,None
5,0.25,-0.1536865234375,-0.558013916015625,-0.77191162109375,0.0056064875192268215,0.02035635907249056,0.02815935172980999,0.013523798435926437,0.2978314161300659,0.013963486067950726,-0.8104189292073956,0.03832986248214535,0.15929301095672682,None
6,0.299,-0.1874847412109375,-0.5621337890625,-0.725860595703125,0.012600053976459108,0.037778626881480926,0.048782010878176796,0.421218603849411,-0.10458899289369583,-0.31587886810302734,-0.7906302697362045,0.03310375545918493,0.2000847951873966,None
7,0.349,-0.1396636962890625,-0.562774658203125,-0.7061920166015625,0.013184003532262456,0.053124922787818774,0.06666326532029254,-0.0201026052236557,-0.1084630936384201,-0.17323623597621918,-0.7820444953933159,0.027683112866078753,0.15284769982132496,None
8,0.399,-0.2042999267578125,-0.548919677734375,-0.8210906982421875,-0.0017387372865850792,-0.004671695806080511,-0.0069880642414245075,-0.01152829173952341,0.0899844840168953,-0.0427357442677021,-0.8313365671910314,0.03218031736738367,0.20256118947122742,None
9,0.449,-0.241943359375,-0.59503173828125,-0.7910919189453125,-0.004518617124421059,-0.011113016737129167,-0.014774703885949259,-0.06670313328504562,-0.26104092597961426,-0.07916060090065002,-0.7991686962052376,0.019132660363558034,0.23742474225057894,None
10,0.499,-0.2162017822265625,-0.5862274169921875,-0.82965087890625,-0.008038742657720033,-0.021796912567361493,-0.030847802652661183,0.21240520477294922,-0.15381325781345367,-0.11314652860164642,-0.8166934476389904,0.011442915206792042,0.20816303956884247,None
11,0.549,-0.2071380615234375,-0.60858154296875,-0.708160400390625,0.009434897425895816,0.0277201804003262,0.03225588136543822,0.14741049706935883,-0.33525151014328003,-0.0699780210852623,-0.7584162014480123,-0.005319385476096405,0.21657295894933332,None
12,0.599,-0.2937774658203125,-0.651275634765625,-0.8089599609375,-0.021584040822079653,-0.04784968734057027,-0.05943486772053075,-0.02600017562508583,-0.0791773796081543,-0.2489677369594574,-0.7789357136679085,-0.009278146421105077,0.27219342499823285,None
13,0.648,-0.2132568359375,-0.6031341552734375,-0.7215118408203125,0.007900579387354667,0.022344462038063173,0.026730029788999854,-0.06580111384391785,-0.1273891180753708,-0.14492149651050568,-0.7672401770730113,-0.015647096892268182,0.22115741532485467,None
14,0.698,-0.20050048828125,-0.5894622802734375,-0.753692626953125,0.004592290660631909,0.01350112484862065,0.017262679215468202,-0.2729324698448181,0.18496398627758026,-0.18627719581127167,-0.787699806344084,-0.006399492451734587,0.2050927789418819,None
15,0.748,-0.2238006591796875,-0.579864501953125,-0.8368072509765625,-0.009101018774567232,-0.023580617404452386,-0.034029383692373405,0.1202465146780014,-0.09291715919971466,-0.16636048257350922,-0.8219455353339244,-0.01104516950314327,0.21469964040512027,None
16,0.798,-0.1652984619140625,-0.5652008056640625,-0.78314208984375,0.003400924578573189,0.011628694481208401,0.01611271605932707,-0.0913243219256401,0.1391104906797409,-0.050577424466609955,-0.8108766559044884,-0.004089858156923536,0.1686993864926357,None
17,0.848,-0.195831298828125,-0.573516845703125,-0.732452392578125,0.010163394448335528,0.029764792249894145,0.03801334426593428,-0.12917928397655487,0.0885530337691307,-0.011965050362050533,-0.7873519894590973,0.00033778212322204277,0.20599469327646053,None
18,0.898,-0.115325927734375,-0.548614501953125,-0.4828033447265625,0.040551661352185936,0.19290744009744554,0.1697664880715155,-0.9985466599464417,0.5942332744598389,0.3038259446620941,-0.6606453099092786,0.03004492376947999,0.15587758908656094,None
19,0.947,-0.2269287109375,-0.4825439453125,-0.5450897216796875,0.07066688360991968,0.150266912807968,0.16974402119399967,-1.115017294883728,0.03948881849646568,0.30203256011009216,-0.7487584732541067,0.032018413485624266,0.2975955945474197,None
20,0.997,-0.501373291015625,-0.5066680908203125,-0.9472198486328125,-0.22615329373091497,0.15254499407324285,-0.24743983905857037,0.6189407110214233,-1.2621405124664307,-0.467092365026474,-0.7278902021927506,-0.031078133865533115,0.27521999728471,None
21,1.047,-0.4220123291015625,-0.4646759033203125,-1.4166412353515625,-0.19642862385275048,0.3424211412742396,-0.8710164993534988,4.41561222076416,-3.0000252723693848,-1.0255277156829834,-0.5600609858924467,-0.18009635047870617,0.22558370524881202,None
22,1.097,-0.436859130859375,-0.8892822265625,-0.7551116943359375,-0.22062507180398291,0.03959503041448298,-0.45439609252029306,5.627334117889404,-3.700963020324707,-0.1917305588722229,-0.3080024611524311,-0.3580070104423608,0.21623405905539209,None
23,1.147,-0.70867919921875,-1.512451171875,-0.4869232177734375,-0.5147468334548202,-0.538208547768139,-0.3718512972950567,3.910463809967041,-2.241727590560913,-0.4557315707206726,-0.11729885067994456,-0.4601986465705591,0.19393236576392983,None
24,1.197,-0.80206298828125,-1.700042724609375,-0.3760986328125,-0.6727695205582482,-0.7086907548877835,-0.39855907210655694,2.8044402599334717,-0.53310626745224,-1.310252070426941,0.022650559640393433,-0.4836973801415712,0.12929346772300176,None
25,1.247,-0.3424224853515625,-1.2685546875,-0.300689697265625,-0.32013913108442216,-0.3135433896565082,-0.5964207796933847,5.552902698516846,-2.056938409805298,-2.1474246978759766,0.29580453210298163,-0.5709981331875833,0.022283354267140353,None
26,1.296,0.230377197265625,-0.636688232421875,0.5431365966796875,-0.03503098770221741,0.09681434579829873,-0.0825889526599839,4.804715633392334,-1.659772276878357,-1.7663687467575073,0.6490012392965386,-0.6370844373841813,-0.2654081849678424,None
27,1.346,0.826446533203125,-0.29522705078125,0.403533935546875,0.5510548697077601,0.2772564784645293,-0.36874971727736583,4.532485008239746,-2.674131155014038,-0.20739659667015076,0.8033473991978559,-0.7341516095538667,-0.2753916634953649,None
28,1.396,1.67822265625,0.170684814453125,0.755126953125,1.4400436269913512,0.5571282250637197,-0.13590180085382597,4.57361364364624,-1.9455070495605469,0.7701321244239807,0.9174312630860552,-0.7966253415869603,-0.23817902925864873,None
29,1.45,2.1139068603515625,0.65618896484375,0.8929290771484375,1.9132935837271376,0.8320992254992985,-0.07081875991170816,4.57361364364624,-1.9455070495605469,0.7701321244239807,0.9837469074274822,-0.851566953144253,-0.2006132766244248,None
30,1.5,0.33709716796875,1.7877655029296875,-0.38958740234375,0.4391275376893396,1.745851076438169,-1.3834852766279075,4.453732013702393,-0.6819213032722473,6.0838422775268555,0.9991119555016976,-0.8689432680052476,0.10203036972058961,None
31,1.549,-3.6986236572265625,0.53216552734375,1.5531768798828125,-3.303318223988371,0.29173653846536396,0.6666513496473417,4.453732013702393,-0.6819213032722473,6.0838422775268555,0.965136123929549,-0.8853094979784897,0.39530543323819145,None
32,1.599,-1.5955810546875,-0.4478759765625,1.8617095947265625,-1.1044798095133082,-0.73988551731282,1.0410086777664644,1.540071725845337,1.24203622341156,2.1390631198883057,0.9421404670042977,-0.8547439649186791,0.4911012451741919,None
33,1.649,-1.7878875732421875,-0.683258056640625,1.1158294677734375,-1.3760008559788595,-0.895589044574062,0.2296777405250785,-2.133212089538574,-0.9853520393371582,-1.7765979766845703,0.9724732590355254,-0.8792688139245461,0.411886717263328,Straight
34,1.699,-1.585174560546875,0.335601806640625,0.8958587646484375,-1.3270732841557502,0.20704344909143926,-0.06166746466829931,-2.034271240234375,-1.3072479963302612,-3.2693445682525635,0.99110705117085,-0.908502896788523,0.2581012763911248,None
35,1.749,-1.5244293212890625,0.338409423828125,0.6907196044921875,-1.4938234235810883,0.34051920051467477,-0.308809698663964,-2.7114715576171875,-0.8038996458053589,-4.608913898468018,0.9999977723319842,-0.9245611889280297,0.030605897707974256,None
36,1.799,-0.3378448486328125,-0.067962646484375,1.0077056884765625,-0.5363524824029721,0.06655573714557775,0.03688154178440428,-2.7114715576171875,-0.8038996458053589,-4.608913898468018,0.9905364747440418,-0.9391259272734757,-0.19850763377015956,None
37,1.849,0.3884735107421875,-0.32293701171875,1.095489501953125,-0.01471728170881853,-0.11240853786925586,0.2049194897803972,-1.8890302181243896,0.4238798916339874,-4.303318500518799,0.9731772473693848,-0.9316338724985251,-0.40319079245100603,None
38,1.898,0.8788299560546875,-0.0318450927734375,1.1748809814453125,0.3392527000899641,0.2466765778437851,0.3803483742842403,-2.1005382537841797,-0.42240849137306213,-3.098679542541504,0.943697049791761,-0.9391006480526247,-0.5395772559647234,None
39,1.948,1.0153656005859375,-0.11724853515625,0.70465087890625,0.3523282946780867,0.20308620860282028,0.028065937516575046,-2.1005382537841797,-0.42240849137306213,-3.098679542541504,0.9038168232975715,-0.9461485323604877,-0.6630373059078508,None
40,1.998,0.8425750732421875,-0.1942596435546875,0.6551666259765625,0.16121333481367783,0.134959142910006,0.0014379574569742815,-0.4867006838321686,-0.5063545107841492,-0.4950512945652008,0.893136809742963,-0.954040617725302,-0.6813617384285097,None
41,2.048,0.624359130859375,-0.0994873046875,0.6672515869140625,-0.057000707006773954,0.23325315786561746,0.01530637761886966,-0.10786361247301102,-0.2475445568561554,0.00005193164179218002,0.890698060164393,-0.9576766210043682,-0.681359837866149,None
42,2.098,0.6470947265625,0.1311492919921875,0.9089813232421875,-0.011052919306931086,0.5418517667488916,0.27797803207387295,-2.1014039516448975,1.2101705074310303,0.6252617239952087,0.8381094501800347,-0.9385174653161582,-0.6581476458694311,None
43,2.148,0.317169189453125,-0.2903594970703125,0.74017333984375,-0.25815030625949154,0.27453627293606775,0.14864967431389198,-3.7077596187591553,-0.2324119359254837,2.1072213649749756,0.7231970374305381,-0.9424658069218854,-0.5753194957126165,None
44,2.198,-0.4925079345703125,-1.9010162353515625,-0.2635955810546875,-1.019375609198773,-1.2438706788995244,-0.8026411923594637,-2.4286630153656006,-1.4161920547485352,1.1616737842559814,0.6342106106309575,-0.9637560870843288,-0.5268676746284604,None
45,2.247,-0.1254425048828125,-2.638092041015625,-0.39971923828125,-0.6020813567509098,-1.895875726769286,-0.8708140777312716,-2.4286630153656006,-1.4161920547485352,1.1616737842559814,0.5358835942613888,-0.9802161131276826,-0.47663885186809735,None
46,2.297,0.9998626708984375,-1.059173583984375,0.3363494873046875,0.4329580384596564,-0.35240973418350696,-0.08685731596542373,-0.5204160213470459,1.4352304935455322,-2.1183228492736816,0.5137355140034621,-0.9635016920280186,-0.5669046324387811,None
47,2.347,2.109619140625,0.4437255859375,0.8504638671875,1.4292214828312366,1.0145654850218249,0.3908979449498315,2.765829086303711,1.1233035326004028,-2.9112329483032227,0.6271000088755802,-0.9469547555444912,-0.6803976577937634,None
48,2.397,2.4231719970703125,0.976043701171875,0.8917388916015625,1.8274563282651095,1.3741707042106408,0.19415898120323372,7.487107753753662,-0.6643327474594116,2.202974796295166,0.8685058642893694,-0.9571051599216271,-0.595715668805203,None
49,2.447,2.3659820556640625,1.43255615234375,1.3332977294921875,1.8621687374152422,1.5567387906782422,0.4784580879854323,7.487107753753662,-0.6643327474594116,2.202974796295166,0.9896124231208665,-0.9661996442000217,-0.5038133182488203,None
50,2.497,-1.332122802734375,2.63812255859375,-1.248748779296875,-1.6417331406373825,2.6624110227633873,-2.199302044070536,2.3742916584014893,0.7797304391860962,4.264488697052002,0.9996737093742061,-0.9554174666825571,-0.3096103379030075,None
51,2.547,-5.7099456787109375,-0.4469451904296875,2.388916015625,-5.5376381639068395,-0.7045037505246063,1.438140695970631,5.801810264587402,-0.5156723856925964,9.759099006652832,0.9652117922972195,-0.962711890046089,0.17230751480409817,None
52,2.596,-2.422210693359375,-1.82244873046875,0.905731201171875,-2.4382878920443836,-1.9348590630818416,-0.08780060043502724,-3.0376219749450684,-1.278860092163086,-3.7849926948547363,0.9936602287246926,-0.9780310736447573,-0.016077198685008544,None
53,2.646,-2.4871368408203125,0.3929443359375,0.6342010498046875,-2.6910246578306953,0.43132873926132465,-0.34404043145452323,-3.0376219749450684,-1.278860092163086,-3.7849926948547363,0.9992310708846399,-0.9893527362629405,-0.20388781701038267,None
54,2.696,-0.72479248046875,0.015838623046875,1.0624847412109375,-1.1122203385727731,0.2304068043412539,0.16590225736410735,-3.9136364459991455,0.4196082055568695,-3.850247621536255,0.972537650759251,-0.9860817863766044,-0.38742785810402314,Straight
55,2.746,0.353546142578125,-0.397216796875,0.678192138671875,-0.19356445436678849,-0.08239661936628484,-0.09740972475030729,-3.0137217044830322,0.23742108047008514,-3.6213715076446533,0.9265782123122315,-0.9840386603049645,-0.5471105969449135,None
56,2.796,0.7049713134765625,-0.4308624267578125,1.1355438232421875,0.02510945198472614,-0.11001437787811746,0.4761165119948082,-1.3449679613113403,0.5395103693008423,-3.3733153343200684,0.8992106406154619,-0.9788808089425682,-0.6798618614918364,None
57,2.846,0.71966552734375,-0.294830322265625,0.675262451171875,-0.053978406893026465,0.02762004914817523,0.12982609283687674,-1.6214733123779297,-1.0651800632476807,-2.739957094192505,0.8608248524547052,-0.9883755163701059,-0.7736439342367765,None
58,2.896,0.98516845703125,0.048248291015625,0.535919189453125,0.15286632793875454,0.3546217164447996,0.0739576216805527,-1.0338302850723267,-0.15465828776359558,-1.973515510559082,0.8333808735979535,-0.9895216066062228,-0.8323021290924955,None
59,2.945,0.8943328857421875,0.0501251220703125,0.3149261474609375,0.0372827700833146,0.3665412749628268,-0.09170134476974479,-1.5134787559509277,0.1026211827993393,-0.9253779053688049,0.7892108039235969,-0.9887677366422396,-0.8570501156588729,None
60,2.995,1.0073394775390625,0.0744781494140625,0.709869384765625,0.14615451532196166,0.4174829782720012,0.33475853684028595,-1.5889148712158203,1.1501915454864502,-0.1615915596485138,0.7379834093486579,-0.9785424280933261,-0.8611849622171008,None
61,3.045,1.0088043212890625,0.1278533935546875,0.8765716552734375,0.15293119051459425,0.5270277784060312,0.5477236744420795,-2.8195877075195312,0.18041345477104187,0.20719259977340698,0.6358410477979002,-0.9766439719988708,-0.8558731307744682,None
62,3.095,0.93182373046875,0.125091552734375,0.327850341796875,0.1063718601900796,0.5936706317722878,0.013107817594271431,-1.9524320363998413,-1.1987335681915283,1.1246894598007202,0.5575869877527122,-0.987760773643628,-0.8254518702786704,None
63,3.145,1.0163726806640625,-0.1614532470703125,0.457183837890625,0.257530882226083,0.39685202552956766,0.12184170285450058,-1.011679768562317,-1.1058861017227173,2.1893868446350098,0.5149009793183484,-0.9948713541045489,-0.7588417984379795,None
64,3.195,0.36968994140625,-1.847930908203125,-0.194732666015625,-0.27560159873312995,-1.1605590594176605,-0.5280774870670394,-1.7870465517044067,-1.9516125917434692,3.202561140060425,0.4363515334905804,-0.9999930024889079,-0.64529154013938,None
65,3.245,-0.2087554931640625,-3.0808868408203125,-1.1040496826171875,-0.7239861823601288,-2.279437386135253,-1.4077207357249326,-1.7870465517044067,-1.9516125917434692,3.202561140060425,0.3543206447123439,-0.9956002914562838,-0.5152306891960663,None
66,3.294,1.122528076171875,-0.677276611328125,-0.054046630859375,0.5127921756654974,-0.013745867201355177,-0.4875775792728096,4.331060409545898,1.4438834190368652,-2.289011001586914,0.5469699783673436,-0.999765746083685,-0.6097359005063776,None
67,3.344,2.359954833984375,1.35400390625,0.959564208984375,1.6636918945803383,1.8565086591674391,0.4470148040409745,4.331060409545898,1.4438834190368652,-2.289011001586914,0.7140691226688592,-0.998722686143104,-0.6962629394040368,None
68,3.394,2.68072509765625,1.5457763671875,0.7827301025390625,2.1242886835874266,1.9883650772135029,0.07952760620123833,4.275055408477783,0.007406517397612333,3.601743221282959,0.8463242195961229,-0.9987039061376389,-0.5564364140688236,None
69,3.444,1.4427032470703125,2.48681640625,-0.418548583984375,1.2320916000631628,2.7511399955536695,-1.3597051991566644,5.759070873260498,-0.3404606282711029,7.557802677154541,0.962751309614408,-0.9994255855553581,-0.21061164700714963,None
70,3.494,-6.0814971923828125,2.2673187255859375,1.153656005859375,-5.916564730444367,2.2533560225256526,0.16744997975622167,5.759070873260498,-0.3404606282711029,7.557802677154541,0.9998997906095589,-0.9998576548242458,0.16493246193844488,None
71,3.544,-3.70379638671875,-1.078369140625,0.1849822998046875,-3.2842293185125033,-0.7434042553058302,-0.6586775847933242,-7.84214448928833,8.591130256652832,5.34557580947876,0.9294230070987616,-0.9019944113871758,0.41956706820624645,None
72,3.593,-1.000732421875,-1.0806121826171875,3.94769287109375,-0.35632574955380414,-0.5482579142018607,3.3987493643757043,-7.84214448928833,8.591130256652832,5.34557580947876,0.7178707125745097,-0.6402397523812956,0.6444066723211959,None
73,3.643,-3.2564544677734375,0.398193359375,0.854766845703125,-2.673478145257328,0.8632708475886323,0.18855251281730978,3.2122907638549805,-3.637096881866455,-1.5572000741958618,0.8199670588582247,-0.7686098099084715,0.5829763225161095,None
74,3.693,-1.402801513671875,0.3498992919921875,0.2704315185546875,-0.9929551771782347,0.961428972546852,-0.4063678832354233,-2.506725549697876,-4.488644123077393,-4.002030372619629,0.7419788438854494,-0.8917045914263706,0.40984633649364033,Straight
75,3.743,0.0685577392578125,-0.3634185791015625,1.0597381591796875,0.30666081263982364,0.42820744693538726,0.4970347192159823,-4.361329555511475,0.4798275828361511,-3.6374661922454834,0.5793660711489483,-0.880590092414091,0.23810307338201114,None
76,3.793,0.95001220703125,-0.141357421875,0.544525146484375,1.0255230547090182,0.825486752766828,0.3005775007811481,-7.415920257568359,0.48394322395324707,-3.2965898513793945,0.2446461151636991,-0.8688669090086985,0.07551084767776815,None
77,3.843,1.2915191650390625,0.03466796875,0.26177978515625,1.2440036709074465,1.0335226739529249,0.2561623381020902,-4.830617427825928,1.9408494234085083,-2.4623236656188965,0.005623799129513607,-0.8168138570292983,-0.04751549413161615,None
78,3.893,1.5610809326171875,-0.0966949462890625,0.13665771484375,1.4662654379575026,0.8928018527463659,0.24577282228117267,-2.309068202972412,-1.8531256914138794,-0.9484949111938477,-0.10960891061194752,-0.8666871950445085,-0.09481549465968481,None
79,3.942,1.1747589111328125,-0.244384765625,-0.09649658203125,1.1214042703332026,0.753700658185211,-0.0652112966284262,1.5698908567428589,-0.3248838186264038,0.8315629959106445,-0.03132991089035443,-0.874675940126919,-0.05335464079960996,None
80,3.992,0.8702392578125,-0.4952545166015625,0.5359344482421875,0.9167827374387617,0.5034029500949863,0.5131975021959089,1.081972360610962,0.37771081924438477,1.9988057613372803,0.02276161360333813,-0.8653665305431786,0.04654347962626175,None
81,4.042,0.468658447265625,-0.9608917236328125,0.2150115966796875,0.03889251287487516,-0.07974142779415005,0.017843146412705985,0.43421509861946106,-0.5227612257003784,1.2617441415786743,0.218362657489725,-0.8781682616247101,-0.42976593439074984,None
82,4.092,0.3370819091796875,-1.5109405517578125,-0.1461029052734375,-0.11602587240412199,-0.6433454962757286,-0.35097398173675487,0.2350524663925171,-1.1463533639907837,-0.5202983021736145,0.22981631844088404,-0.9041291297882982,-0.4531077815838095,None
83,4.142,0.8776702880859375,-1.3702545166015625,-0.2222137451171875,0.36436044477641394,-0.543657121515185,-0.452972821207311,0.806951105594635,3.496424436569214,-1.375772476196289,0.26888624213595685,-0.8160339737612672,-0.5133098433095236,None
84,4.192,1.76055908203125,-0.232391357421875,0.7196044921875,1.1894751372636432,0.5487216248897249,0.4671651194800174,0.806951105594635,3.496424436569214,-1.375772476196289,0.3075184985159098,-0.7030622666952253,-0.5710839447676068,None
85,4.242,1.779296875,0.3602142333984375,1.3488922119140625,1.2438355093485742,1.0841105517186476,0.9138574475363692,4.57086181640625,0.5146111249923706,0.855435311794281,0.5151024284904662,-0.684533836722585,-0.5354613656514258,None
86,4.291,1.991668701171875,0.2475433349609375,1.2478485107421875,1.4928093511427252,0.869943198543098,0.6447251745153406,4.57086181640625,0.5146111249923706,0.855435311794281,0.6958984608852522,-0.6655522282376476,-0.49885935002914983,None
87,4.341,0.9987030029296875,0.700775146484375,0.3038787841796875,0.730920661323768,1.2698446201251996,-0.4735866823808572,3.3854875564575195,-1.325539469718933,5.023831844329834,0.8069351976317327,-0.7135206960794002,-0.26778234160591946,None
88,4.391,-1.3289031982421875,2.4143218994140625,-0.3673553466796875,-1.1665272541982643,2.7297871133107483,-1.3022969232591886,6.128606796264648,1.9522027969360352,8.683773040771484,0.9475160946701982,-0.6418438238095555,0.1623759440439232,None
89,4.441,-4.58966064453125,-0.5292205810546875,1.3571929931640625,-4.0272596053148755,-0.513518513082366,0.5304774942469717,6.128606796264648,1.9522027969360352,8.683773040771484,0.999819675777647,-0.564056484740411,0.5624010392163746,None
90,4.491,-1.1051788330078125,-0.66192626953125,1.9338531494140625,-0.5470403216459695,-0.6489901952921157,1.1042062003338737,0.06800062209367752,1.617181420326233,-0.10292132198810577,0.9998784628125331,-0.4955180060914267,0.558138511361843,None
91,4.541,-2.1470947265625,-0.1750030517578125,0.81512451171875,-1.6808093789797773,-0.0881142881301331,-0.06523241441116512,-1.6557517051696777,-3.3863742351531982,-2.1410727500915527,0.9951647285986959,-0.6348001241103006,0.46628534758272266,None
92,4.591,-2.0003814697265625,0.503448486328125,0.6369171142578125,-1.7278990713019884,0.7107688291538985,-0.3026421536967936,-2.3759663105010986,-2.083186149597168,-4.182298183441162,0.9765096433721111,-0.7116957022929555,0.2724823984245741,Straight
93,4.64,-0.9016571044921875,0.20269775390625,0.4771881103515625,-0.845736303890527,0.5545680988470133,-0.4571887538800695,-2.8596158027648926,-0.4982185661792755,-4.400442600250244,0.9358412613915846,-0.7289727062444112,0.05592080060166048,None
94,4.69,0.559661865234375,-0.215789794921875,0.784576416015625,0.4215353407763278,0.29053765053115876,-0.06663071578141622,-3.5291011333465576,-0.36073288321495056,-3.8903908729553223,0.8594452656716142,-0.7412003193459656,-0.13812652445804718,None
95,4.74,0.7325897216796875,-0.262481689453125,0.3094482421875,0.42959384526348005,0.35565617771603575,-0.41587863312206363,-3.383371353149414,-0.6695879101753235,-3.3853037357330322,0.7611050002666176,-0.7632549448598182,-0.30299587641620745,None
96,4.79,1.6460418701171875,-0.063690185546875,0.9634857177734375,1.2248022629643898,0.6571669799255779,0.413102087609188,-4.258433818817139,0.6806557774543762,-2.539538621902466,0.60685153672434,-0.7408287218101565,-0.4212396071527976,None
97,4.84,1.3938140869140625,0.1251220703125,0.18780517578125,0.93712661552081,0.9050618580959437,-0.24013229734391778,-3.005280017852783,-1.196950078010559,-0.7891289591789246,0.4810301141115082,-0.7796776112607082,-0.4566874713932525,None
98,4.89,1.4052276611328125,-0.329254150390625,0.5086822509765625,1.0429992025267494,0.5207482288264391,0.12620807001632323,-1.5800340175628662,0.5298182964324951,2.0722103118896484,0.41034068647538646,-0.7628178794464222,-0.3622284586060631,None
99,4.94,1.8291473388671875,-2.223480224609375,0.306396484375,1.5455934646173561,-1.3942887681692597,-0.175307500417145,2.069068193435669,-0.32863035798072815,1.6631907224655151,0.5023210972599943,-0.7733392648146228,-0.2835538742498313,None
100,4.989,0.306640625,-1.5241546630859375,0.14202880859375,-0.033085818939375455,-0.7407158827546132,-0.37836490847177473,1.2008353471755981,0.054715175181627274,-1.1825591325759888,0.5533017293171848,-0.7716019226982201,-0.33972644393937546,None
101,5.039,0.8853912353515625,-1.056060791015625,0.1474456787109375,0.4576009049921803,-0.2947651375292407,-0.3398164286129849,-0.33957913517951965,2.9459898471832275,-1.9084135293960571,0.5390795096281806,-0.6698866838258695,-0.4277903303593822,None
102,5.089,1.5507659912109375,-0.2098541259765625,0.408538818359375,1.104298862282144,0.4056649497244652,-0.24092509151878938,4.85764217376709,0.5071553587913513,-0.41533008217811584,0.7258201658623047,-0.6508461255285806,-0.4464671289287937,None
103,5.139,1.7164154052734375,0.40924072265625,0.876434326171875,1.2995874733214703,0.8502841247138619,0.08161661584698932,5.039477348327637,1.156032681465149,0.6572074294090271,0.874400954950938,-0.6059000528569431,-0.41682793195196716,None
104,5.189,2.1725921630859375,0.8656005859375,0.924713134765625,1.7858534800850085,1.0978818579113265,0.032256636239826775,5.039477348327637,1.156032681465149,0.6572074294090271,0.9677584129223704,-0.5589302141464741,-0.38673868300092884,None
105,5.239,0.9102783203125,1.6268768310546875,0.1504058837890625,0.858244107255116,1.714961885844386,-0.8443470824262661,3.326066493988037,0.4742959439754486,6.900694847106934,0.9961023833913553,-0.5391102374343076,-0.05203421305738395,None
106,5.289,-3.3779754638671875,1.7017364501953125,0.6131744384765625,-3.009308592646865,1.5387190417091323,-0.30198132017606594,5.292022228240967,1.2480590343475342,8.592643737792969,0.9845025597098698,-0.4855370371334605,0.3686668712203228,None
107,5.338,-3.7626190185546875,-0.2780609130859375,-0.007568359375,-3.0402606770913057,-0.5731583907862559,-0.6329609602052165,5.292022228240967,1.2480590343475342,8.592643737792969,0.9043752474939488,-0.43007370676216883,0.7223583414633817,None
108,5.388,-0.956329345703125,-0.80047607421875,2.3720245361328125,-0.26151284317951795,-1.2202919986973675,1.7880856545920931,3.6488091945648193,-1.4693535566329956,-0.7808385491371155,0.81194297521229,-0.4951800800464071,0.694816502523607,None
109,5.438,-1.8867034912109375,-0.1405487060546875,1.29803466796875,-1.3195365472217557,-0.4866967558728218,0.5507039612176658,-3.791276216506958,-1.7710537910461426,-3.302055835723877,0.9073920822803878,-0.5700730670074016,0.5671669439891817,None
110,5.488,-1.8868865966796875,0.1356201171875,0.6195526123046875,-1.4896038095802198,-0.17971329674289088,-0.2422659446627775,-1.6599373817443848,-1.52948796749115,-3.89015793800354,0.9391109174716812,-0.6311765724973585,0.39728278709946774,Straight
111,5.538,-1.056182861328125,-0.0869903564453125,0.638427734375,-0.8471039240196961,-0.3514675265428381,-0.30302742890744894,-1.5379507541656494,-0.2425556480884552,-3.958420991897583,0.9627327442385866,-0.6405367079403411,0.20907893730842883,None
112,5.588,0.4628448486328125,-0.1652374267578125,0.8880157470703125,0.4755564420552871,-0.3609180904284962,-0.0925695339012419,-1.5379507541656494,-0.2425556480884552,-3.958420991897583,0.9806645143176443,-0.649802632409527,0.012711593422474576,None
113,5.638,0.862091064453125,-0.197357177734375,0.7807769775390625,0.7011259997244349,-0.27520384481341315,-0.20310825172376867,-2.360208034515381,-0.03213023766875267,-3.4876065254211426,0.9968844989229243,-0.6510229078216415,-0.1609650647286901,None
114,5.687,1.119842529296875,-0.1552734375,0.7576141357421875,0.790083121474089,-0.11841405261461885,-0.18573103899410004,-2.360208034515381,-0.03213023766875267,-3.4876065254211426,0.9992375208461122,-0.6522415030218343,-0.329759407822786,None
115,5.737,1.111572265625,0.260650634765625,0.6663055419921875,0.6610143685780715,0.50240516865247,-0.19308512979440084,-4.703382968902588,0.12508068978786469,-2.626828908920288,0.9626360765061405,-0.6474881500597743,-0.4505578970469285,None
116,5.787,1.2100982666015625,0.209014892578125,0.570404052734375,0.7231495664677152,0.5771396071336778,-0.2216598070467345,-3.2168657779693604,-0.9523911476135254,-0.8240541815757751,0.9068423816598429,-0.6830301447141207,-0.48694870013384733,None
117,5.837,1.1566314697265625,-0.3247528076171875,0.39202880859375,0.7417137639197633,0.12122592523365117,-0.4010325176936832,-1.5442107915878296,-0.8197505474090576,1.6148103475570679,0.871631071815755,-0.7123849935894216,-0.41491770580679926,None
118,5.887,0.5748443603515625,-1.344573974609375,0.381927490234375,0.2605840186487072,-0.9201831679407382,-0.46726794124647575,0.9764701128005981,0.07187898457050323,2.163498640060425,0.8945143544713856,-0.7098582046987061,-0.3142603417028553,None
119,5.937,0.8422088623046875,-1.4333953857421875,0.591278076171875,0.5160200420923853,-1.0332228715431695,-0.265146358584714,0.5267748832702637,-0.8483797907829285,-0.2518327832221985,0.9059771874083656,-0.7390882787338486,-0.3261888202123022,None
120,5.987,1.3767547607421875,-0.8120269775390625,-0.1478729248046875,1.0396711669107468,-0.4590233052343452,-1.0206633109278758,1.055473804473877,1.2373219728469849,-0.23096823692321777,0.9270460124049351,-0.696027375159932,-0.33708359383144065,None
121,6.036,1.4295501708984375,-0.220062255859375,0.0993194580078125,1.1124615621671885,-0.11435745738659182,-0.8431673110201188,5.453035354614258,0.07868682593107224,0.4231874644756317,0.9937693243365149,-0.6931970785037874,-0.3170886087312491,None
122,6.086,1.8717041015625,0.5223541259765625,0.116058349609375,1.607321716592439,0.27885480591282746,-0.8171136793574394,7.33868408203125,0.5984519720077515,1.1018927097320557,0.9676012800207286,-0.6713233328996403,-0.26438238497006117,None
123,6.136,2.668914794921875,1.5042724609375,1.623382568359375,2.458040942014483,0.9345699122831258,0.8290455969066407,7.33868408203125,0.5984519720077515,1.1018927097320557,0.8126099004321335,-0.6488485548030756,-0.21087385290739222,None
124,6.186,-0.19696044921875,2.753631591796875,-0.9585723876953125,0.09101403711351685,2.01351508771366,-1.5662715366212487,5.222996711730957,3.155510663986206,10.091597557067871,0.6345812271235859,-0.5212326534938829,0.28797448633226685,None
125,6.236,-5.1672210693359375,1.0723114013671875,1.6075592041015625,-4.452174355104373,0.4358055601843519,1.3184770175061693,5.222996711730957,3.155510663986206,10.091597557067871,0.41352000037708897,-0.38066853936045686,0.7150467142315649,None
126,6.286,-3.021209716796875,-1.2039642333984375,-0.931671142578125,-2.1764320146448712,-1.6676687428470574,-1.1987455926174269,-1.9247487783432007,3.3074846267700195,4.189173698425293,0.4990950565803485,-0.22324763508435294,0.8447777021520035,None
127,6.335,-2.052093505859375,-0.90423583984375,2.8826446533203125,-1.2610650115531776,-1.4446766337378993,2.5959432939047495,0.6961777210235596,-4.776871681213379,-1.8732256889343262,0.46863526742156786,-0.44751848278194784,0.7910284943061974,None
128,6.385,-2.6914520263671875,0.76324462890625,0.4574432373046875,-1.9611069155501464,0.14904381107755726,0.15852288924485913,0.6961777210235596,-4.776871681213379,-1.8732256889343262,0.43760770966700957,-0.6463812076382535,0.7303451108170411,Straight
129,6.435,-1.47479248046875,0.3666229248046875,0.388092041015625,-0.9113945550057845,-0.2973251803031589,-0.10359453731220236,-3.6897811889648438,-1.2319761514663696,-4.406683921813965,0.595128420065284,-0.6921263506536889,0.5633979254629655,None
130,6.485,-0.0060882568359375,-0.212921142578125,0.9064178466796875,0.35814442204012975,-0.8260701803700844,0.2054308189155798,-4.294286251068115,0.5997492074966431,-4.513681888580322,0.7526908842174368,-0.6701741811945875,0.36423267887606725,None
131,6.535,0.6364593505859375,-0.38690185546875,0.825164794921875,0.7916051444636382,-0.894013176185209,-0.02263700446478989,-3.5919926166534424,0.0428374782204628,-4.34067440032959,0.8581931587687203,-0.6685829380769881,0.15514579387770064,None
132,6.585,0.8902435302734375,-0.148284912109375,0.8661346435546875,0.8813128327810964,-0.5259745635536559,-0.05975453438951872,-3.034816265106201,-0.4575324058532715,-3.294116973876953,0.9259261033902056,-0.6854184285170033,-0.00893069749234108,None
133,6.635,1.0748748779296875,0.0919647216796875,0.555694580078125,0.9221210507832257,-0.14668175041054263,-0.40332269278561017,-2.868499994277954,-1.8438105583190918,-2.888467788696289,0.9704056915924234,-0.7495412045490698,-0.1527538271464618,None
134,6.684,1.5338592529296875,0.5118408203125,0.2289276123046875,1.3139987812524632,0.40786386967922794,-0.741046700103056,-2.7420668601989746,-1.436730146408081,-1.366344690322876,0.9943036005247564,-0.7951198782655402,-0.21986047167722425,None
135,6.734,1.5626678466796875,0.050048828125,-0.1179962158203125,1.5521350642976461,0.020823332540807784,-1.1175135647958823,-1.5511301755905151,0.6501436829566956,4.222769260406494,0.9995727965689297,-0.7749892225057156,-0.010532782382041429,None
136,6.784,-0.1069488525390625,-1.6993865966796875,0.16497802734375,-0.01415302157325854,-1.8295166597270602,-0.8221668963866274,2.0367531776428223,-0.3417368233203888,2.0692501068115234,0.9914227563319868,-0.7856740138738594,0.09279583096580396,None
137,6.834,0.4427337646484375,-1.763702392578125,0.5276031494140625,0.5305733576022339,-1.8689965403623587,-0.4629509118829993,-0.50336754322052,0.08195691555738449,-0.09953165054321289,0.9943977742135424,-0.7831323300515197,0.08783959295379636,None
138,6.884,0.8654327392578125,-1.2091827392578125,0.1166229248046875,0.8631801604822349,-1.3514456579950584,-0.8732034174600654,0.736940324306488,1.0591812133789062,-1.8041105270385742,0.9898288535187447,-0.7491169065503339,-0.0022525787755776462,None
139,6.934,1.4419097900390625,-0.396942138671875,0.4864959716796875,1.349583356425428,-0.5748098722875559,-0.49321771047168894,0.736940324306488,1.0591812133789062,-1.8041105270385742,0.9839161916557659,-0.7130009542559934,-0.09232643361363452,None
140,6.984,1.78765869140625,0.4855194091796875,0.463226318359375,1.702603198671576,0.09194680791737508,-0.45212398108411045,4.529552459716797,1.1293635368347168,0.14599448442459106,0.9186793954396868,-0.6722921377493325,-0.08505549273467397,None
141,7.033,2.368927001953125,0.8779754638671875,0.8741912841796875,2.2911469823420356,0.2885633059364241,0.07011194939194454,4.529552459716797,1.1293635368347168,0.14599448442459106,0.8065226585032083,-0.6294401831271232,-0.0777800196110895,None
142,7.083,1.2632904052734375,0.798614501953125,0.641754150390625,1.5497874816998074,0.05095209093226705,0.04265453901900984,5.2543044090271,-0.800216794013977,7.368546009063721,0.6253119921142932,-0.6600185112333483,0.28649707642636985,None
143,7.133,-2.72576904296875,1.786407470703125,-0.0791015625,-2.137514911540168,1.0178027669062315,-0.3305053933349622,7.188182353973389,0.8108624815940857,6.766591548919678,0.31088321113208295,-0.6290264829653363,0.588254131428582,None
144,7.183,-4.0500640869140625,0.1541748046875,1.5635833740234375,-3.2267486664299994,-0.4128776265596056,1.588144697479166,7.188182353973389,0.8108624815940857,6.766591548919678,-0.04327345173624707,-0.5970006372402599,0.8233154204840631,None
145,7.233,-0.79559326171875,-0.7092132568359375,1.8079681396484375,0.05561475475577282,-1.2313105017409938,1.8614413063029227,1.175541639328003,-1.622105360031128,1.0210990905761719,-0.1018869415521112,-0.6600327997577494,0.8512080164745228,None
146,7.283,-0.97833251953125,-0.1338043212890625,0.9782562255859375,-0.17173008880923324,-0.7234183949980206,1.0200624791571604,-0.6255615949630737,-2.7208914756774902,-1.5980263948440552,-0.07072687174236911,-0.7558209486333024,0.8066024307220168,None
147,7.333,-2.061676025390625,0.3041534423828125,0.7665863037109375,-1.3423044734255858,-0.39038714777824535,0.7557263386032286,-1.7284176349639893,-3.541316509246826,-2.7096853256225586,0.015634273830743443,-0.8593375010664234,0.7193715519650391,Straight
148,7.382,-1.4828948974609375,0.2717742919921875,1.0692596435546875,-0.8947723573283449,-0.5214309518594626,0.9113440999428207,-3.6176204681396484,0.20818541944026947,-3.4832332134246826,0.19525351548668107,-0.8539676479762457,0.5881225401325926,None
149,7.432,-0.5553741455078125,-0.14971923828125,0.7767791748046875,-0.11722351303638562,-0.993194213388617,0.4660156157561481,-3.129689931869507,-0.16924920678138733,-3.5039045810699463,0.3457147825804297,-0.8583402569433141,0.4381506324714269,None
150,7.482,0.2106781005859375,-0.3162994384765625,1.0125274658203125,0.47320985771428614,-1.1537550091623823,0.5332099889572322,-3.336796522140503,0.4795309007167816,-3.757904291152954,0.49674150339941153,-0.845792821199667,0.26253175712834864,None
151,7.532,0.55340576171875,-0.1724700927734375,0.69708251953125,0.6194001850374411,-0.9172562443124712,0.03305064938757318,-4.165999412536621,-0.18614457547664642,-3.9920527935028076,0.6654826277106758,-0.8507216300174253,0.06599442331869106,None
152,7.582,1.1309967041015625,0.0116729736328125,0.4332733154296875,1.0451994677925782,-0.56125914086194,-0.3818264492754141,-4.599754333496094,-0.7708352208137512,-3.038905382156372,0.8181164720604,-0.8703430191817203,-0.08579723630898423,None
153,7.632,1.4467010498046875,0.1249542236328125,0.4532623291015625,1.2110891778774608,-0.2379418654344368,-0.4482882653448298,-4.599754333496094,-0.7708352208137512,-3.038905382156372,0.9276669862394743,-0.888671702247451,-0.23561187192722657,None
154,7.682,1.830413818359375,0.011016845703125,0.6866912841796875,1.6502623442946633,-0.22972466905815714,-0.26703245436452794,-2.7084624767303467,1.6491256952285767,1.1341534852981567,0.9695872721835884,-0.8478853521907377,-0.18015147406471171,None
155,7.731,0.829315185546875,-1.0418243408203125,0.460723876953125,0.7393165096459648,-1.3587918454672938,-0.48343280460664073,1.5326985120773315,-2.761019706726074,1.8203965425491333,0.9480037899413508,-0.9127782024727186,-0.0899986759009102,None
156,7.781,0.4627227783203125,-1.5758514404296875,-0.048126220703125,0.39261696683456165,-2.014164013112207,-0.9442106273436799,2.620622396469116,-1.5510114431381226,0.3991450071334839,0.8982946059766,-0.9416790344916142,-0.07010581148575085,None
157,7.831,0.7180328369140625,-1.4144439697265625,0.6049346923828125,0.5788436597737341,-1.873236363362469,-0.27263918627859907,0.5358863472938538,2.0872461795806885,-1.3895841836929321,0.8862003216360735,-0.901500046840881,-0.13918917714032844,None
158,7.881,1.1656036376953125,-0.5648651123046875,0.0027923583984375,0.9616962564719813,-1.0721342629531798,-0.8345246596317709,1.2595009803771973,1.9071717262268066,-1.3140987157821655,0.8552864287374478,-0.8561976875914387,-0.20390738122333119,None
159,7.931,2.214202880859375,0.7227325439453125,0.75274658203125,1.9509647067468254,0.018461821891212038,0.0934223721410875,5.4731011390686035,2.4529054164886475,-1.2205944061279297,0.6834281208223258,-0.786560608131883,-0.2632381741125496,None
160,7.981,2.2550201416015625,1.2427825927734375,1.278228759765625,2.2313573077354625,0.4056491731116093,0.7317420646131091,3.4820444583892822,0.44731783866882324,4.854243755340576,0.5466397565006447,-0.7725538050229868,-0.02366283386610022,None
161,8.031,0.4195709228515625,1.6508636474609375,0.0518798828125,0.6368705583284057,0.7534326965559227,-0.33204531404146,3.4820444583892822,0.44731783866882324,4.854243755340576,0.39332368702761356,-0.7581605610219218,0.2172996354768432,None
162,8.08,-3.358306884765625,1.5038299560546875,0.8443145751953125,-2.779352711768932,0.6943946917569379,0.7461992426476032,5.672356128692627,0.23357653617858887,7.967966079711914,0.12033374523432766,-0.7504936418435457,0.578954172996693,None
163,8.13,-3.568634033203125,-1.3722076416015625,1.317596435546875,-2.871886995811691,-2.039106046139586,1.0534183064163618,-5.130784511566162,7.742532730102539,3.0681419372558594,0.3682864870578691,-0.4454547056335137,0.6967470373914344,None
164,8.18,-1.2083740234375,-1.071868896484375,0.7676544189453125,-0.5533119853277733,-1.7837989464492867,0.5145747275742163,0.7122677564620972,-1.3188740015029907,-1.1317564249038696,0.3349497523051636,-0.5034834201710203,0.6550620381097267,None
165,8.23,-0.9667205810546875,-0.1258544921875,1.0222320556640625,-0.4030876836120707,-0.8834172081910926,0.6929651605140934,-1.3691062927246094,0.11109483242034912,-2.309748888015747,0.3986159460008354,-0.4986763534329251,0.5636328974426168,Straight
166,8.28,-2.197998046875,0.0756988525390625,1.0224151611328125,-1.7333033077846542,-0.710337112888173,0.6147311406995493,-1.3691062927246094,0.11109483242034912,-2.309748888015747,0.46041490285994874,-0.4938538999984744,0.46469473909034575,None
167,8.33,-0.806549072265625,0.304595947265625,0.36651611328125,-0.5900911840592566,-0.3399999682277235,-0.3667246987051882,-7.4236674308776855,4.39940071105957,-5.302099227905273,0.7510466595120163,-0.2922189632060221,0.2164578882063683,None
168,8.38,0.31787109375,-0.417877197265625,0.0515899658203125,-0.2846538051793719,0.37420934661301275,-0.04619885346157146,-2.066821813583374,1.4375858306884766,-3.4593746662139893,0.1225270126916845,-0.22278170887679488,-0.6025248989293719,None
169,8.429,0.75396728515625,-0.710479736328125,0.485870361328125,0.052671656007383216,-0.004484075929734099,0.3871051446000944,0.32314422726631165,-1.8728877305984497,-2.6110475063323975,0.13854579184836416,-0.31296318761865666,-0.7012956291488668,None
170,8.479,0.77508544921875,-0.6913604736328125,0.798248291015625,0.008482117931150168,-0.04975666714284832,0.7724822677224739,-1.9771137237548828,-1.106318712234497,-1.9264239072799683,0.04012643214616237,-0.3649948643008547,-0.7666033312875998,None
171,8.529,1.2969818115234375,-0.55853271484375,0.2420654296875,0.4717299129340671,0.0011187533519713133,0.31789113786759476,-3.49609112739563,-1.2648587226867676,-1.9422705173492432,-0.134260678536113,-0.4231057125391726,-0.8252518985893704,None
172,8.579,1.416534423828125,-0.8038177490234375,-0.1880035400390625,0.5909515859115277,-0.2468027865232867,-0.09774109331544893,-0.519658088684082,-1.3410494327545166,-0.011724567040801048,-0.15996012010895902,-0.4828643295445208,-0.8255828379165973,None
173,8.629,0.9239349365234375,-0.9586944580078125,0.064544677734375,0.10975501642797247,-0.3839298272957202,0.14674368621826306,0.37200260162353516,-0.7837230563163757,0.39837905764579773,-0.1415728841991983,-0.5167999882089421,-0.814179920095465,None
174,8.679,0.5068359375,-0.957672119140625,-0.1995849609375,-0.2933073281357349,-0.36230986058226144,-0.12668409988589094,0.40417489409446716,-0.4662947356700897,0.4756264388561249,-0.12154013921406552,-0.5366176160335406,-0.8001432656357349,None
175,8.728,0.4573516845703125,-0.9446868896484375,-0.0188751220703125,0.02167197176079333,-0.04476473638549605,-0.0008944126069498765,0.06105669587850571,0.3839665651321411,0.1520766168832779,-0.019976307298902072,-0.5203196824544806,-0.43567971280951917,None
176,8.778,0.3588104248046875,-0.912261962890625,-0.116058349609375,-0.004676099075412832,0.011888805414528303,0.001512498812144783,-0.015096660703420639,-0.05934321880340576,-0.12335602194070816,-0.12620321708847596,-0.5228512593410557,-0.36348652388010033,None
177,8.828,0.4302825927734375,-0.8372955322265625,-0.0417327880859375,-0.026342609184154597,0.051260611857233074,0.00255495003789713,-0.08141815662384033,0.2579689621925354,-0.14232705533504486,-0.049780567664696025,-0.5118131255804211,-0.4566252019575921,None
178,8.878,0.4086761474609375,-0.8321533203125,-0.0789337158203125,-0.030550916266902373,0.062208295169764005,0.005900753830738847,-0.22531461715698242,0.13177268207073212,-0.051480501890182495,-0.09443090845503506,-0.5061417831199135,-0.4392270637278399,None
179,8.928,0.3890533447265625,-0.879913330078125,-0.0634002685546875,-0.014456550346671704,0.03269605962627653,0.0023558444793669447,-0.08748190850019455,-0.08978581428527832,-0.0840807855129242,-0.07186654591642974,-0.5100084598599267,-0.4035098950732342,None
180,8.978,0.3735504150390625,-0.82220458984375,-0.1050872802734375,-0.0373159288280967,0.08213436987758516,0.010497724841268652,0.17881076037883759,-0.2574014365673065,0.09682827442884445,-0.12678026139015044,-0.5210363580175559,-0.4108663438671592,None
181,9.028,0.4216156005859375,-0.70941162109375,-0.033355712890625,-0.08886684925750121,0.14952761592702946,0.007030615340628044,0.4202904999256134,-0.3288692235946655,0.16822709143161774,-0.04696695401191588,-0.5350003474284981,-0.5104824498434387,None
182,9.077,0.47393798828125,-0.96563720703125,-0.230560302734375,-0.00360861560548692,-0.08821936771370675,-0.18487467738484178,-0.10074099153280258,-0.5003078579902649,0.757710874080658,-0.051997827825958146,-0.5559650591434658,-0.4775466038867369,None
183,9.127,-0.312286376953125,-2.0796966552734375,-1.2570037841796875,-0.7562117873355285,-1.185091154128277,-1.2059036145358344,-0.10074099153280258,-0.5003078579902649,0.757710874080658,-0.05702738236074315,-0.5765818828110796,-0.4439254103824036,None
184,9.177,0.9500885009765625,-1.249725341796875,0.2651214599609375,0.3979423587979174,-0.4188674226280463,0.19576905674602654,2.806722402572632,3.433274984359741,-2.4992294311523438,0.08318155795273023,-0.42853903832534285,-0.5521461421786451,None
185,9.227,1.9938201904296875,0.2093963623046875,0.9904022216796875,1.3420640686529777,0.948941934383069,0.8222168937053304,2.806722402572632,3.433274984359741,-2.4992294311523438,0.22175498863386195,-0.26789879681022305,-0.6517561217767098,None
186,9.277,2.6518707275390625,1.0341033935546875,1.2079315185546875,1.972533325232602,1.686883308572399,0.8727016326898084,5.016170024871826,0.8632764220237732,-0.7392341494560242,0.45682471883429954,-0.22607612795219253,-0.6793374023064603,None
187,9.327,1.774993896484375,1.1082763671875,0.47772216796875,1.3499316465881372,1.8164799902343338,-0.08598849541849396,3.9571592807769775,-0.6095243096351624,6.156573295593262,0.6227717726289174,-0.2556537261890599,-0.42506224989623775,None
188,9.377,-1.0818939208984375,1.7189788818359375,-0.1078948974609375,-1.0777683943578036,2.244332104209048,-0.9587691371538264,6.9076104164123535,-0.19667178392410278,8.863123893737793,0.8508814807120126,-0.2651480157430565,0.004125526540633925,None
189,9.426,-3.6724090576171875,1.500885009765625,0.681304931640625,-3.239892783171907,1.686857674979189,-0.20093304086641817,6.9076104164123535,-0.19667178392410278,8.863123893737793,0.9784964592147084,-0.2746166658293524,0.4325162744452806,None
190,9.476,-2.5877227783203125,-0.855499267578125,2.150054931640625,-2.005219356957363,-0.8793032069399143,1.3375753093907385,4.740888595581055,1.9081506729125977,3.490469217300415,0.9995710928931497,-0.1817673903667534,0.5825034213629493,None
191,9.526,-1.375274658203125,-1.0545806884765625,1.7373504638671875,-0.8736035600331084,-1.0055431726295516,0.8736830329075363,-1.720137119293213,-1.889589786529541,-1.9255144596099854,0.9983920026013503,-0.27372418316808517,0.5016710981700166,None
192,9.576,-1.7403717041015625,0.06561279296875,1.097686767578125,-1.4109832388539372,0.2724677161004687,0.17642986543953876,-3.28309965133667,-1.784325122833252,-3.7974729537963867,0.9757067106628127,-0.35833068764153214,0.3293884652476254,None
193,9.626,-2.000091552734375,0.5392303466796875,0.979827880859375,-1.904435544538449,0.9283835194884043,0.06363481376656521,-3.615734100341797,-1.4493029117584229,-4.797066688537598,0.9204136696130587,-0.4249841502717956,0.0956560081959259,Straight
194,9.676,-0.6984100341796875,0.0778350830078125,0.7496337890625,-0.8326102395764604,0.6571927832311797,-0.05431581138727626,-4.4556989669799805,0.673949122428894,-4.608176231384277,0.8112883202550478,-0.39424569292723444,-0.1342002053967729,None
195,9.726,0.3362579345703125,0.0896453857421875,0.4107666015625,-0.02499335913381251,0.7919998973622827,-0.20258129547799164,-4.5700154304504395,-0.09661442041397095,-4.7000627517700195,0.657767953861899,-0.3986805327865207,-0.361251293704125,None
196,9.775,0.9762725830078125,0.267059326171875,0.532012939453125,0.4062806727498771,0.9832190396004343,0.12924192870081969,-4.1107025146484375,0.21703244745731354,-4.737730979919434,0.4901976044293428,-0.38870534151221,-0.5699919102579354,None
197,9.825,2.015960693359375,0.3858184814453125,0.3518829345703125,1.3038334803555673,1.035589872394335,0.08604092885337916,-2.479257583618164,-2.160285711288452,-3.7205512523651123,0.37866510336217407,-0.48576688145596836,-0.7121272130038075,None
198,9.875,2.56884765625,0.9363555908203125,0.47442626953125,1.7391582078137517,1.475183567762265,0.3285501905525592,-2.479257583618164,-2.160285711288452,-3.7205512523651123,0.26132118075280375,-0.5771664455825135,-0.8296894484362481,None
199,9.925,0.855712890625,-0.3986053466796875,0.4013824462890625,0.13938904225740945,0.26547310843533756,0.1871863919092332,0.9524065852165222,-1.731285572052002,3.6006321907043457,0.3069731811185656,-0.6456077679527096,-0.7163238483675906,None
200,9.975,0.530670166015625,-0.8086090087890625,0.285064697265625,0.004381853924204426,-0.006676852751893891,0.00235383849019416,0.2762507498264313,0.7766459584236145,1.914178729057312,0.33248124372215404,-0.6154734813832358,-0.5262883120914206,None
201,10.025,0.1863861083984375,-1.758636474609375,0.2121124267578125,-0.28209235703645275,-0.9077369970454099,-0.02558066633734188,-1.3306721448898315,0.7634377479553223,1.3332349061965942,0.26904339756180007,-0.5849469775201672,-0.46847846543489025,None
202,10.075,0.5125732421875,-2.092498779296875,0.0167236328125,0.10398567171080553,-1.199052345328513,-0.16984985641137015,-1.3306721448898315,0.7634377479553223,1.3332349061965942,0.20441501065220327,-0.5535682550057813,-0.4085875704766945,None
203,10.124,1.4239959716796875,-0.5259246826171875,0.0916290283203125,0.9181370965756396,0.29057359137478256,-0.18664667497877369,2.4520747661590576,2.6804330348968506,-2.1894261837005615,0.3225950155756317,-0.43732423847301527,-0.5058588751040479,None
204,10.174,1.8826141357421875,0.744049072265625,0.3731231689453125,1.3951149401630591,1.4167281309589241,-0.18351622806607382,7.256274700164795,0.7002997994422913,0.42308175563812256,0.6375265788629031,-0.4055734922627008,-0.4874991955791283,None
205,10.224,2.5419464111328125,1.4702911376953125,1.3913421630859375,2.0730250406055886,1.9066229739141678,0.6234051363938056,7.256274700164795,0.7002997994422913,0.42308175563812256,0.8694546218415075,-0.37332554366843507,-0.46892137052722377,None
206,10.274,1.67401123046875,2.130218505859375,0.0004730224609375,1.3162405479418609,2.3022036247580084,-0.9173620703534889,6.6293158531188965,-0.9234952926635742,2.443794012069702,0.9828933157591666,-0.41574875646021625,-0.35777068252688926,None
207,10.324,-4.2000274658203125,3.202911376953125,0.11260986328125,-4.2297850757580076,3.2680833407825447,-0.8848203847969867,2.3997228145599365,1.7542699575424194,6.722349166870117,0.9978721614879511,-0.3344790910526938,-0.029757609937694718,None
208,10.374,-5.668975830078125,-1.533905029296875,-0.454742431640625,-5.214666303941542,-1.8213936674263234,-1.2979228022660496,7.876872539520264,4.899019241333008,10.027179718017578,0.9464962048559337,-0.09595361268380675,0.45430952613658293,None
209,10.424,-1.5606689453125,-1.46136474609375,3.9685821533203125,-0.9079409074191219,-1.5147543016305176,3.212873437009956,-5.161307334899902,7.534922122955322,4.791656494140625,0.9975137103257318,0.27697512366335414,0.6527280378933781,None
210,10.473,-1.8354644775390625,0.922393798828125,0.435150146484375,-1.3454058046722202,0.9959700796903451,-0.43342859378185605,-3.100764274597168,-3.7135515213012695,-3.980454921722412,0.9964314014808421,0.0948243787361976,0.4900586728668424,None
211,10.523,-1.5828399658203125,0.7176055908203125,0.5833892822265625,-1.2747979193608847,0.9433291684092602,-0.34081792621401985,-3.100764274597168,-3.7135515213012695,-3.980454921722412,0.9714459600404952,-0.09058616524474129,0.3080420464594279,Straight
212,10.573,-0.39276123046875,0.076934814453125,0.8129119873046875,-0.2645333558538577,0.5477290287943218,-0.0599628146655623,-5.1018548011779785,1.18765127658844,-3.6910483837127686,0.8801405990602661,-0.0313228264367898,0.12822787461489232,None
213,10.623,0.2038726806640625,-0.2776031494140625,0.5315093994140625,0.09495893915673216,0.3405139144151511,-0.24699499512332623,-3.5284299850463867,0.1813546121120453,-4.754242420196533,0.7831632727915857,-0.02225838165743345,-0.10891374150733034,None
214,10.673,1.14697265625,0.0576629638671875,1.1271209716796875,0.8305474606347027,0.7755486043826124,0.5070279925857625,-3.7459750175476074,-0.7255172729492188,-4.256568908691406,0.6536807530322453,-0.05850266065448992,-0.31642519561529725,None
215,10.723,1.5115509033203125,0.1847076416015625,0.6736602783203125,1.0513181235899556,0.9701743742540689,0.2598634678470261,-4.55136251449585,-1.5715547800064087,-3.125974178314209,0.46609327720197435,-0.136684598431491,-0.46023277973035687,None
216,10.773,1.9387054443359375,0.7136077880859375,0.3514556884765625,1.426226833743696,1.5231909497684706,0.06520269197598566,-2.900174379348755,-0.9982060194015503,-1.19622802734375,0.33335623578352896,-0.18593573982743372,-0.5124786105922414,None
217,10.822,1.388458251953125,0.0204315185546875,0.2610015869140625,1.0487514049291877,0.8756436755911439,-0.13042072280027495,1.787390947341919,-1.7290858030319214,3.8292717933654785,0.41617145601997246,-0.2700822102461288,-0.3397068470239374,None
218,10.872,0.1057891845703125,-1.201263427734375,0.1690826416015625,-0.1257181758251054,-0.3824090545058233,-0.3561619276490122,2.822042942047119,-2.72224497795105,2.2595667839050293,0.5399122840799435,-0.39823388280798416,-0.2315073603954179,None
219,10.922,0.625152587890625,-1.274261474609375,0.47796630859375,0.4198304816356616,-0.44650560295209873,-0.044205166709074706,-0.15107446908950806,0.13677382469177246,0.5366807579994202,0.5335388114306677,-0.39195159805274093,-0.20532210625496342,None
220,10.972,0.4172515869140625,-1.374267578125,0.235626220703125,0.17056830929368674,-0.5168274829065365,-0.21597520052384667,-1.5602326393127441,0.8840736150741577,-0.8492690324783325,0.4660026956025977,-0.35091521240736895,-0.24668327762037576,None
221,11.022,0.9272003173828125,-1.25396728515625,-0.0919189453125,0.639600607214123,-0.3743603061778966,-0.47083578215596955,-1.5602326393127441,0.8840736150741577,-0.8492690324783325,0.3956320117013809,-0.3091932622230538,-0.28759971016868946,None
222,11.072,1.13507080078125,-0.6357574462890625,0.38690185546875,0.7817256351323848,0.16417798053764832,-0.09812443950930988,2.7661266326904297,2.135894298553467,-1.3884962797164917,0.5184713126173071,-0.20606299811265658,-0.3533451656488652,None
223,11.121,1.7946929931640625,0.3921661376953125,0.539520263671875,1.4414825021068085,1.0931129350615123,-0.08008923937755486,3.576408624649048,1.6789355278015137,0.0028791434597223997,0.662298708958862,-0.12328862973879111,-0.35321049105725405,None
224,11.171,1.6346893310546875,0.6177215576171875,0.5925140380859375,1.401822135924831,1.2010824472319084,-0.18560095463703707,4.071958541870117,1.9936492443084717,2.5195136070251465,0.8001112144436788,-0.023918375232181335,-0.23286719512985649,None
225,11.221,1.7508087158203125,0.462249755859375,1.334228515625,1.6899342547626903,0.9870991185804503,0.4852129407135469,1.792630672454834,1.2031000852584839,3.482255458831787,0.8505930590419005,0.03622641954388282,-0.06087446105762213,None
226,11.271,0.7250213623046875,1.866363525390625,0.067047119140625,0.9844395446530921,2.272248272408807,-0.8092860245924168,2.398766279220581,-2.626697540283203,6.466636657714844,0.9073978278283786,-0.09495724400103984,0.25941818234840464,None
227,11.321,-6.34735107421875,2.865570068359375,0.0289764404296875,-5.794525275912977,3.122794214436717,-0.7636264711233594,2.398766279220581,-2.626697540283203,6.466636657714844,0.9511651382652029,-0.22450535727105508,0.552825798305773,None
228,11.371,-3.2938079833984375,-2.0116729736328125,0.48193359375,-2.424967551412189,-2.065336927322015,-0.010241663470831608,8.44825553894043,4.799392223358154,9.342076301574707,0.9941082487411139,0.013533791827541133,0.8688404319862487,None
229,11.421,-1.4673004150390625,-1.369659423828125,2.1896514892578125,-0.6321681862362749,-1.4280522558211322,1.6427105074446695,-0.044910214841365814,-3.1460657119750977,-1.289644479751587,0.9943491372611257,-0.1432743185251949,0.8351322288027876,None
230,11.47,-1.3841094970703125,0.07794189453125,0.6964263916015625,-0.6508504054819675,0.06338163434026518,0.016632964576700826,-1.6988863945007324,-2.1610774993896484,-3.3054070472717285,0.9997706995230359,-0.24916983147757266,0.733259091588345,None
231,11.52,-2.0694732666015625,0.492523193359375,1.0716552734375,-1.4580702161503014,0.5427610642116669,0.28193224209605483,-1.6988863945007324,-2.1610774993896484,-3.3054070472717285,0.9979827154846274,-0.352158956684351,0.611403050451261,None
232,11.57,-1.244384765625,0.21112060546875,0.9194183349609375,-0.7877212803104894,0.504704338907631,0.07961654129740181,-5.455556869506836,1.3113900423049927,-3.671825408935547,0.9439798732018769,-0.2900770307691163,0.4566634853145107,Straight
233,11.62,-0.3952484130859375,-0.1783447265625,0.808746337890625,-0.14935415196306828,0.2682182570115478,-0.051554489755311295,-2.8497250080108643,0.9065032601356506,-4.515979766845703,0.8875516283121655,-0.24641763868840438,0.24589426112286922,None
234,11.67,0.6986236572265625,-0.3612823486328125,0.980377197265625,0.7153257465167131,0.3221809416991558,0.2505834106505679,-5.476681709289551,0.41845184564590454,-4.634786128997803,0.7298955994763314,-0.22608776708125278,0.016702089290150598,None
235,11.72,1.216827392578125,-0.1107177734375,0.824066162109375,1.0275065972887119,0.7280915679187261,0.31361878448410163,-5.42990779876709,0.6323622465133667,-4.143465042114258,0.5198486905070691,-0.1951804749230725,-0.18932079528941312,None
236,11.77,1.493408203125,-0.07354736328125,0.853302001953125,1.1649554168766811,0.8379598438221219,0.6057674011306806,-5.630054473876953,0.7671504616737366,-2.88389253616333,0.26207438551046064,-0.15742632635329432,-0.32845278624831886,None
237,11.819,1.255615234375,-0.27001953125,0.090576171875,0.8943258269832571,0.6500294032856793,-0.061015127896077576,-2.0374770164489746,-1.6873959302902222,-0.6997064352035522,0.1625724627540036,-0.24008531368977165,-0.36128940739174287,None
238,11.869,0.95111083984375,-0.611175537109375,-0.1714630126953125,0.6224001487224304,0.3053933351539744,-0.3991706848111995,1.6041563749313354,-2.9418506622314453,0.6942451000213623,0.24110575872253773,-0.3797687145533484,-0.3287106911213196,None
239,11.919,0.54931640625,-0.9315338134765625,-0.2151336669921875,0.2555740582461806,-0.028679813725553394,-0.5290924033299549,1.8231052160263062,-2.424886703491211,0.7359704375267029,0.3284483558593313,-0.48886708824433645,-0.2937423480038194,None
240,11.969,0.461090087890625,-0.91229248046875,-0.112396240234375,0.01271382827934292,-0.025155019033865744,-0.003099148160223858,0.4337136149406433,-1.0560104846954346,0.10896030813455582,-0.12227746714691416,-0.5342253667373359,-0.4483762596112821,None
241,12.019,0.5793304443359375,-0.7610931396484375,-0.2525177001953125,-0.0062846602748543035,0.008256448227393687,0.0027393484575701232,0.14496943354606628,-0.4382825493812561,-0.1761143058538437,-0.3149030724793459,-0.552620548376585,-0.5856151046107918,None
242,12.069,0.59088134765625,-0.7980194091796875,-0.073089599609375,-0.002581889483194044,0.003486990963783909,0.00031936914121728777,0.14496943354606628,-0.4382825493812561,-0.1761143058538437,-0.09120700327616192,-0.5707503562323215,-0.593463237139444,None
243,12.119,0.54510498046875,-0.773345947265625,-0.0827789306640625,-0.02883101292162138,0.04090284953794687,0.004378239981519122,0.018664764240384102,0.2930702269077301,-0.05771522596478462,-0.10643198606999958,-0.5586571660716729,-0.5739359933903714,None
244,12.168,0.5486907958984375,-0.798553466796875,-0.0359039306640625,-0.017229013280666505,0.02507475683501781,0.001127391424939797,-0.12977823615074158,0.3199668228626251,0.1440383940935135,-0.04491583469068413,-0.5453172372954553,-0.565919809179104,None
245,12.218,0.5499114990234375,-0.821746826171875,-0.0492706298828125,-0.0055552005665849835,0.008301278373785803,0.0004977314195594856,-0.4756552278995514,0.07904554903507233,-0.0023989754263311625,-0.05985092023526721,-0.5420000703296824,-0.5554666995900225,None
246,12.268,0.5246734619140625,-0.8419647216796875,-0.1572418212890625,0.0023223878618084948,-0.003726829717223379,-0.0006960071809202217,-0.2595601975917816,0.2569974362850189,-0.03981905058026314,-0.18358181013441807,-0.5311568655729755,-0.522351074052254,None
247,12.318,0.451171875,-0.8793182373046875,-0.1405487060546875,-0.0007892342273579378,0.0015381899627961992,0.00024586162297735026,0.031325165182352066,0.1498882919549942,-0.12324816733598709,-0.15783478292847955,-0.524792189650606,-0.45196110922735794,None
248,12.368,0.4799041748046875,-0.8436737060546875,-0.163604736328125,-0.007651312584029235,0.013451042068092,0.0026084186043672797,0.7624955177307129,0.11868297308683395,-0.09223858267068863,-0.19037301252417765,-0.5197316516698686,-0.48755548738871674,None
249,12.418,0.47784423828125,-0.750640869140625,-0.142059326171875,-0.0524468239728465,0.08238820598161367,0.015592027436045458,1.8138058185577393,0.5693017840385437,-0.031074563041329384,-0.18595003783230504,-0.49520582324420925,-0.5302910622540965,None
250,12.468,0.6679229736328125,-0.4818572998046875,0.3166046142578125,-0.0890567246117453,0.06424787669372212,-0.04221410410456494,2.126089096069336,0.40882372856140137,0.4256969690322876,0.5491240198709765,-0.4773447988668628,-0.7569796982445578,None
251,12.517,0.6417236328125,-0.9349212646484375,0.1291656494140625,-0.06740304628671245,-0.3747738528312393,-0.29905652425775564,1.427782416343689,-1.054787278175354,1.4083932638168335,0.6073374759975638,-0.5230025462119796,-0.7091266790992125,None
252,12.567,-0.3169708251953125,-3.047088623046875,-0.7508087158203125,-0.9747294292573834,-2.4828449809571103,-1.249790410017197,1.427782416343689,-1.054787278175354,1.4083932638168335,0.6624570077469086,-0.5672059302395555,-0.6577586040620709,None
253,12.617,1.009796142578125,-1.13909912109375,-0.0614166259765625,0.1916938879581842,-0.7373878372211906,-0.47292208814593584,1.4669471979141235,4.185694217681885,-4.805281162261963,0.715571102122274,-0.3837229942773049,-0.8181022546199408,None
254,12.667,3.10302734375,3.267669677734375,1.072906494140625,2.1715811289213947,3.5020891106458616,0.7945982507217124,1.4669471979141235,4.185694217681885,-4.805281162261963,0.7648372674578594,-0.1834942131025128,-0.9314462148286053,None
255,12.717,3.2310791015625,2.67230224609375,1.1360321044921875,2.264335866727893,2.786844822604671,0.907367467812705,4.712493896484375,4.540945053100586,-2.276134490966797,0.894098098281341,0.042494605752105785,-0.966743234834607,None
256,12.767,0.2736053466796875,2.2888946533203125,0.38336181640625,-0.545388851165566,2.405593323172763,-0.1784476925471662,5.191522598266602,3.042635679244995,7.050361156463623,0.9791002929555065,0.19341255007497207,-0.8189941978452535,None
257,12.817,-5.1358184814453125,1.9790191650390625,0.69366455078125,-5.591175444651665,1.8700359651136151,-0.18994888177480762,6.550502777099609,0.41463688015937805,9.737656593322754,0.9924795512838378,0.21370990460352157,-0.45535696320635244,None
258,12.866,-4.96417236328125,-1.651153564453125,-1.9046173095703125,-5.20475749854397,-1.928325520387221,-2.8348293819141874,3.337435007095337,3.390254020690918,4.5960893630981445,0.9583610133701002,0.37545137958236896,-0.24058513526272035,None
259,12.916,-2.3070068359375,-1.7895050048828125,2.906402587890625,-2.3830370277654236,-2.1695924984235813,1.9845821567954443,2.029879570007324,6.057252407073975,3.3373003005981445,0.9244963710989971,0.6347974524428605,-0.07603019182792377,None
260,12.966,-2.1871795654296875,0.5271759033203125,0.6427001953125,-2.3265339178957123,0.277851491223022,-0.3156409245300723,-2.731276035308838,-4.649572372436523,-1.2741148471832275,0.9677841980992209,0.4397027951293844,-0.13935435246602465,None
261,13.016,-2.06475830078125,0.17388916015625,0.3819427490234375,-2.3973770905718443,0.021266833838711252,-0.5486866972051154,-1.8393646478652954,-2.6294729709625244,-3.9853949546813965,0.9868174855288904,0.3181657703356083,-0.3326187897905942,Straight
262,13.066,0.0870208740234375,0.161590576171875,1.2100830078125,-0.42222039577542914,0.21624245782014662,0.3511962277501095,-4.521948337554932,0.6894588470458984,-3.9044766426086426,0.997981670666105,0.3506518240866231,-0.5092412697988666,None
263,13.116,0.5417022705078125,-0.0442047119140625,0.975860595703125,-0.12976520291026095,0.1447066984217044,0.2593105896417891,-3.884587287902832,0.0680251196026802,-4.037687301635742,0.9669596509955926,0.35383508597014346,-0.6714674734180734,None
264,13.165,1.2833099365234375,-0.03375244140625,1.3863525390625,0.4882863910938823,0.26755750278915547,0.859902275750208,-5.241203308105469,-1.1321848630905151,-3.65718150138855,0.8679011902151978,0.30034949259723936,-0.7950235454295552,None
265,13.215,1.4260101318359375,0.0869903564453125,0.2115325927734375,0.5554894471574515,0.4209816916889224,-0.14991384244081457,-4.522097110748291,-0.9170064926147461,-2.7442591190338135,0.7344504329791801,0.2563157847764626,-0.870520684678486,None
266,13.265,1.6951141357421875,0.12420654296875,0.3711090087890625,0.7654602504634122,0.4285477443258338,0.16345524228673147,-4.522097110748291,-0.9170064926147461,-2.7442591190338135,0.5636117594100607,0.21174333090722142,-0.9296538852787753,None
267,13.315,1.047882080078125,-0.3505096435546875,0.17523193359375,0.16778789756906332,0.019099111674176272,-0.12280094709540523,1.596947193145752,-1.350131869316101,2.348235607147217,0.6277030669157058,0.1453352385129011,-0.8800941825090617,None
268,13.365,0.438934326171875,-1.0117950439453125,0.2516632080078125,-0.39263918828333066,-0.6300188057614236,-0.15173782572261357,2.686668872833252,-1.880925178527832,1.882515549659729,0.7263060070681105,0.0517823716375125,-0.8315735144552057,None
269,13.415,0.2916259765625,-1.1805572509765625,0.3762664794921875,-0.5325041405798154,-0.7949628351404742,-0.03861482461179272,0.18072423338890076,0.11183465272188187,0.26540157198905945,0.7324875045691481,0.057365763715559626,-0.8241301171423154,None
270,13.465,0.54351806640625,-0.7097625732421875,0.2478485107421875,-0.042366940445649925,0.05532561018611459,-0.019319657879244723,-1.3080291748046875,0.5998144745826721,-0.37588974833488464,0.3296768026636114,0.08727681466024599,-0.5858850068518999,None
271,13.514,0.7388153076171875,-0.5313262939453125,0.352020263671875,-0.01836714811324336,0.013208915187245762,-0.008751318841209166,-0.9394993185997009,0.6649476289749146,-0.012790895998477936,0.5523112137179654,0.12034299292234402,-0.7571824557304309,None
272,13.564,0.5886993408203125,-0.6842193603515625,0.3614501953125,-0.01677090282625371,0.019492082984682968,-0.010297015270425425,-0.6994161605834961,-0.12287159264087677,0.29972732067108154,0.46709659994786357,0.1142418298224286,-0.6054702436465662,None
273,13.614,0.3825836181640625,-0.9611968994140625,0.0249786376953125,0.012880425485037927,-0.03236057283049476,0.0008409546731148673,-0.5240150094032288,0.48810309171676636,0.46511387825012207,0.025978244032868202,0.1384507762161629,-0.3697031926790246,None
274,13.664,0.355499267578125,-1.114471435546875,0.2159423828125,-0.010014079318232949,-0.18408747679759374,0.18791235351108113,0.08274202048778534,0.021927136927843094,0.09010618925094604,0.030113714706827346,0.13953649097017373,-0.36551334689635795,None
275,13.714,0.41583251953125,-1.0173187255859375,0.2344818115234375,0.046089253034056754,-0.08848482743287112,0.21087023551156,-0.09406151622533798,0.2173677384853363,-0.0909687876701355,0.025412456127121837,0.15029009875698796,-0.36974326649719325,None
276,13.764,0.3965301513671875,-0.895660400390625,0.271026611328125,0.006366094490746599,-0.014379382553501685,0.0043511975350993826,-0.17200931906700134,-0.04765220731496811,-0.16249863803386688,0.2896299311747437,0.1479341258649447,-0.3901640568764409,None
277,13.814,0.364532470703125,-0.8590545654296875,0.2321319580078125,-0.01454282123941647,0.03427150661188394,-0.009260776036636387,-0.4643711447715759,-0.1600959300994873,-0.012818593531847,0.26086194853545885,0.1400127494033224,-0.37907529194254147,None
278,13.863,0.4093017578125,-0.8175506591796875,0.193450927734375,-0.028675809047024214,0.057277854642503456,-0.013553232444757007,-0.3984999656677246,-0.193929523229599,0.2376895248889923,0.23026407850806768,0.13040535481890658,-0.4379775668595242,None
279,13.913,0.30364990234375,-0.8921051025390625,0.1713104248046875,-0.013374940041826489,0.03929476731383863,-0.007545751349225083,0.007516505662351847,-0.3821447193622589,0.34780004620552063,0.1885838529558393,0.1114386288703715,-0.3170248423855765,None
280,13.963,0.2625274658203125,-0.9314422607421875,0.217864990234375,-0.002129729108778622,0.007556236790884796,-0.0017674090215135663,-0.12583835422992706,-0.1976936310529709,0.22253826260566711,0.22775350671148034,0.10161023170298533,-0.2646571949290911,None
281,14.013,0.2904052734375,-0.9391021728515625,0.166412353515625,-0.0008837738706246046,0.0028579162919081247,-0.0005064332615086764,-0.2786436080932617,-0.24425527453422546,0.19293004274368286,0.17448532772053318,0.08945340219219775,-0.2912890473081246,None
282,14.063,0.370941162109375,-0.8862152099609375,0.153167724609375,-0.010352520618997718,0.02473319806790486,-0.004274726531201617,-0.4751017987728119,-0.24350880086421967,0.09219490736722946,0.17030859041572638,0.07732044273056392,-0.3812936827283727,None
283,14.113,0.3974609375,-0.9176483154296875,0.0655517578125,0.0008617977957551259,-0.0019896981587423923,0.0001421331131203074,-0.4751017987728119,-0.24350880086421967,0.09219490736722946,0.07125294344681017,0.06517602132446686,-0.3965991397042449,None
284,14.163,0.3827667236328125,-0.9405975341796875,0.07708740234375,0.0069225436888011305,-0.01701121628896818,0.001394167459270887,-0.32838132977485657,-0.17928506433963776,0.05276361107826233,0.08168191822328758,0.0562283291753329,-0.37584417994401137,None
285,14.212,0.4095001220703125,-0.960601806640625,0.0152130126953125,0.017392002684913366,-0.04079800786324983,0.0006461164316750936,-0.23350143432617188,-0.08285866677761078,-0.02364993467926979,0.015834974665178855,0.052091479506788343,-0.39210811938539913,None
286,14.262,0.4221649169921875,-0.9484100341796875,-0.0037994384765625,0.015506917172669943,-0.03483689727354966,-0.0001395605731016377,-0.05356282740831375,-0.039153262972831726,-0.004303401801735163,-0.004006081601320626,0.050136375673581,-0.40665799981951756,None
287,14.312,0.4578857421875,-0.8543548583984375,0.0429229736328125,-0.014030035212865055,0.026178209197664892,-0.0013151989154150875,-0.004852279555052519,0.048050615936517715,-0.004036020487546921,0.050176931806400954,0.05253573799653803,-0.47191577740036506,None
288,14.362,0.482208251953125,-0.7949371337890625,0.149932861328125,-0.02981541689190592,0.04915175538945704,-0.009270498271624433,-0.8647076487541199,0.49535247683525085,0.16113056242465973,0.18534187606630445,0.0772505173952647,-0.5120236688450309,None
289,14.412,0.5731353759765625,-0.5008392333984375,-0.04364013671875,-0.1786324639570055,0.15609950119700722,0.013601577351961637,-1.1923986673355103,0.44708776473999023,0.10955525934696198,-0.0868051180933008,0.09951694715681425,-0.751767839933568,None
290,14.462,0.5589141845703125,-0.7825164794921875,-0.067718505859375,-0.0208701607513736,0.029219592503554326,0.0025286459748994905,-0.8965821862220764,-0.10330375283956528,1.0819076299667358,-0.08621715815454321,0.09437609553328238,-0.5797843453216861,None
291,14.512,-0.19287109375,-2.68951416015625,-1.1541290283203125,-0.7277535319994528,-1.8518441426588432,-1.0436314308884467,-0.8965821862220764,-0.10330375283956528,1.0819076299667358,-0.1307777640416524,0.08923272604007682,-0.5348824382494528,None
292,14.561,0.74786376953125,-1.796600341796875,-0.2791748046875,0.2130916731936333,-0.9538869050850428,-0.21710332521420467,1.1525905132293701,0.4839323163032532,0.0026117621455341578,-0.07345769082512352,0.11330434465128018,-0.5347720963376167,None
293,14.611,1.8021240234375,0.655670166015625,0.5924224853515625,1.1634334644993702,1.3988948077891934,0.39319522370333704,6.708495140075684,2.6264843940734863,-2.57114577293396,0.2589170409061925,0.24243253993421018,-0.6386905589381298,None
294,14.661,4.8138885498046875,3.1460723876953125,1.9398193359375,4.0818206223957425,3.7093438262506644,1.5566720585532596,6.708495140075684,2.6264843940734863,-2.57114577293396,0.5624331782735029,0.3673857367106034,-0.7320679274089451,None
295,14.711,-0.1210479736328125,3.16595458984375,-0.0296478271484375,-0.6412970817972109,3.793362778998207,-0.6090439176047617,2.9661808013916016,1.2772831916809082,5.484199523925781,0.6784381893236265,0.4259944606353995,-0.5202491081643984,None
296,14.761,-6.1554107666015625,2.4893341064453125,2.3595428466796875,-6.115361356424065,2.820401834693113,1.4167861420855088,9.7489013671875,-3.4814107418060303,11.744054794311523,0.9435136851236934,0.2628648215067483,0.04004941017749694,None
297,14.811,-2.97650146484375,-2.327606201171875,2.11883544921875,-2.651205673685398,-2.31180860674717,1.1733551034341037,6.420192718505859,2.881983995437622,5.825287818908691,0.9998604415967556,0.39869136176152,0.32529579115835194,None
298,14.861,-2.0220947265625,0.1002349853515625,0.9551544189453125,-1.867679983750463,0.3000895888854848,-0.012427218255699701,-3.7395851612091064,-2.9688544273376465,-3.5257890224456787,0.9793275775988497,0.2586715835125733,0.154414742812037,None
299,14.91,-1.9479217529296875,0.6910552978515625,0.4946746826171875,-1.9753158534514281,1.0754778959321711,-0.4280760038315192,-3.82104754447937,-1.5846083164215088,-3.6486518383026123,0.9230971144501827,0.181406321430349,-0.02739410052174069,Straight
300,14.96,-0.756927490234375,0.3773040771484375,0.9275054931640625,-0.9766652258399965,0.9445747576235006,0.1338309360411365,-4.516227722167969,0.5507968068122864,-3.8829619884490967,0.8135587613744977,0.208417014915652,-0.2197377356056215,None
301,15.01,0.1033477783203125,-0.2889251708984375,1.179931640625,-0.32908236853980327,0.4529961392239592,0.6675285398607627,-6.916551113128662,1.5381438732147217,-4.512811660766602,0.568283914199806,0.2829451435096305,-0.43243014686011577,None
302,15.06,1.106201171875,0.058013916015625,0.78533935546875,0.5010770206823821,0.8276844926348804,0.5817909211097587,-6.917520523071289,0.294090211391449,-4.054711818695068,0.25567199801514023,0.29701767306456417,-0.6051241511926179,None
303,15.11,1.5941619873046875,-0.0727691650390625,0.5363006591796875,0.8934957665140167,0.6404637555264494,0.555422585455801,-5.706930637359619,-0.7486563920974731,-2.5281803607940674,-0.026800582427846876,0.2610744005819393,-0.7006662207906708,None
304,15.16,1.676971435546875,-0.142913818359375,-0.3262939453125,0.9648220493920049,0.5483676498178178,-0.2039289848294168,-2.9678640365600586,-0.8021723628044128,-0.32448673248291016,-0.17430211908049906,0.22215721499098942,-0.7121493861548701,None
305,15.21,0.8584442138671875,-0.839447021484375,-0.062164306640625,0.2201959222450932,-0.07651494481103216,0.040664505588140304,0.8244653940200806,-1.8135207891464233,2.0066897869110107,-0.1335733019938393,0.13295551697368882,-0.6382482916220943,None
306,15.259,0.0603485107421875,-1.4585418701171875,-0.1635894775390625,-0.5547098665287722,-0.6813219011398808,-0.030802759936253282,-0.7048159837722778,-1.7297612428665161,0.5952132940292358,-0.168408142916987,0.046845166529302616,-0.6150583772709597,None
307,15.309,0.2167510986328125,-1.2005462646484375,-0.75872802734375,-0.4098197935474832,-0.4432683303808902,-0.5745024934352695,-1.388464331626892,0.553065299987793,-0.2937101721763611,-0.2363791911265129,0.07444664214037543,-0.6265708921802957,None
308,15.359,0.4610443115234375,-0.852325439453125,-0.55902099609375,-0.20059155231326942,-0.11509795146542734,-0.42215020066826936,1.1014328002929688,0.14643017947673798,-0.9170563220977783,-0.18253691231843241,0.08174577335760484,-0.6616358638367069,None
309,15.409,0.6255340576171875,-0.733367919921875,-0.09552001953125,-0.020258044743730497,0.023750265800053127,0.003093434811458781,1.4448951482772827,-0.010488327592611313,-0.4055964946746826,-0.12915748060559804,0.08122310087088742,-0.645792102360918,None
310,15.459,0.482940673828125,-0.785858154296875,0.013671875,-0.04057674151611412,0.06602790968603178,-0.0011487128087972857,0.2690548896789551,0.2677707374095917,0.09092191606760025,0.017394750399897452,0.09455972299246723,-0.5235174153442391,None
311,15.509,0.4452362060546875,-0.731903076171875,-0.09259033203125,-0.07147164826822772,0.1174889160298096,0.014863085153418831,-0.35884469747543335,0.2578384578227997,-0.03380030766129494,-0.12550597295188967,0.1073856662437604,-0.5167078543229152,None
312,15.558,0.337493896484375,-0.816680908203125,-0.15570068359375,-0.03863580377708681,0.093492426519452,0.017824384742806426,-0.3898092806339264,0.1315401792526245,-0.05216972902417183,-0.18727740571557566,0.11392227353197933,-0.3761297002614618,None
313,15.608,0.454010009765625,-0.8177490234375,-0.2001800537109375,-0.020642844136784244,0.03718126312356451,0.009101750091768307,-0.5209555625915527,0.1119220107793808,-0.05330183729529381,-0.23777346318690695,0.11948012875715987,-0.47465285390240924,None
314,15.658,0.5548248291015625,-0.940582275390625,-0.2215728759765625,0.07796773550665242,-0.09181857217036771,0.006916704494955017,-0.4579148292541504,0.1124330684542656,-0.05012042447924614,-0.25994830692910825,0.12505959462641963,-0.4768570935949101,None
315,15.708,0.506072998046875,-0.850830078125,-0.380615234375,0.028919399141820512,-0.04862044552095257,-0.021750150521424594,-0.442926824092865,-0.17169159650802612,-0.0957169383764267,-0.408348829739078,0.11653790685507867,-0.4771535989050545,None
316,15.758,0.472076416015625,-0.8501129150390625,-0.321380615234375,0.01112091054367459,-0.020026481644570993,-0.007570903674150864,0.32005390524864197,0.31351956725120544,0.34824877977371216,-0.35361898856187174,0.1320921167865006,-0.4609555054719504,None
317,15.808,0.405487060546875,-0.8390350341796875,-0.22442626953125,-0.017546066961621698,0.03630637405052661,0.009711279930440575,0.32005390524864197,0.31351956725120544,0.34824877977371216,-0.25839739101623943,0.14761386755490588,-0.4230331275084967,None
318,15.858,0.4666900634765625,-0.714263916015625,-0.1320037841796875,-0.07385831879388283,0.11303932982643972,0.020890904557327866,1.5226455926895142,0.06307004392147064,0.3313038945198059,-0.18173343503841674,0.15073208420066686,-0.5405483822704453,None
319,15.907,0.2144775390625,-1.662353515625,-0.4670257568359375,-0.2996926971654075,-0.809213785836977,-0.37881255127941804,1.594335675239563,-0.46059638261795044,0.6209772825241089,-0.102849975512823,0.1279274309154819,-0.5141702362279075,None
320,15.957,0.407806396484375,-2.4564971923828125,-0.4204254150390625,-0.07949005697796618,-1.5834979265823481,-0.40006741035110843,1.594335675239563,-0.46059638261795044,0.6209772825241089,-0.023313274542472496,0.10505493142881743,-0.4872964534623412,None
321,16.007,1.4599609375,-0.1454925537109375,-0.7152099609375,0.8813131885470821,0.6291678627421726,-0.9702943034840683,6.828367233276367,1.8494024276733398,-2.1615724563598633,0.31276527214908734,0.1964335383330803,-0.5786477489529179,None
322,16.057,3.6488189697265625,2.4046173095703125,2.030548095703125,2.9855725261771,2.9960679080378445,1.5719738436006023,6.828367233276367,1.8494024276733398,-2.1615724563598633,0.6127386412559063,0.2861336929046175,-0.6632464435494624,None
323,16.107,2.4606475830078125,2.04974365234375,0.593017578125,1.854368802171106,2.470339449633645,-0.08190850316778453,7.079809188842773,1.2758193016052246,1.4755080938339233,0.8486944052096749,0.34663410954069374,-0.6062787808367064,None
324,16.157,-1.412689208984375,2.632415771484375,0.0902099609375,-1.7362464306784697,2.910447811560254,-0.8142284885884162,5.180898189544678,-0.3953624963760376,6.437727451324463,0.9558552360328209,0.32802508132109937,-0.3235572216940946,None
325,16.207,-5.19183349609375,1.4159393310546875,0.7797698974609375,-5.076260696679775,1.2957673263054539,-0.20623295106951534,8.390388488769531,-1.4537221193313599,8.906363487243652,0.9926546147948755,0.2585550742155672,0.11557279941397502,None
326,16.256,-1.612762451171875,-0.9308929443359375,1.4251861572265625,-1.426773177612769,-1.3101730057197793,0.5187896517403459,5.500568389892578,1.4184932708740234,1.4249392747879028,0.922492359947422,0.32636059322652505,0.18598927355910608,None
327,16.306,-1.6463165283203125,-1.1331939697265625,1.8558197021484375,-1.3908544870185373,-1.7345874633114196,1.0988091267086153,5.500568389892578,1.4184932708740234,1.4249392747879028,0.7829909299885578,0.392525106037778,0.25546204130177524,None
328,16.356,-2.5544586181640625,0.5639801025390625,1.1051483154296875,-2.382134395561954,0.023620164110956132,0.28154920224017466,-1.8137612342834473,-1.167290449142456,-1.7027373313903809,0.836107036490982,0.3382069534510389,0.17232422260210845,Straight
329,16.406,-1.10247802734375,0.6866455078125,0.321563720703125,-1.1562964942742235,0.2563338764629894,-0.5795109002592992,-2.7023723125457764,-0.13416260480880737,-4.540663719177246,0.9023824111917337,0.33188655940668804,-0.05381846693047345,None
330,16.456,-0.297393798828125,-0.027130126953125,1.364227294921875,-0.5735538538678104,-0.23816922702136248,0.4265716426470826,-4.482958793640137,2.1286189556121826,-4.519040107727051,0.9755949186600257,0.4302175334014352,-0.27616005503968544,None
331,16.506,0.5932769775390625,-0.137420654296875,1.3070220947265625,0.07555986346292765,-0.05380687671485998,0.45556585627907564,-6.385381698608398,0.6182973384857178,-5.287679672241211,0.9952128860393057,0.457915149866834,-0.5177171140761349,None
332,16.556,1.0909881591796875,-0.0825653076171875,0.983062744140625,0.41449386679063627,0.15449627679937059,0.2858129484727109,-4.596942901611328,-0.2747969329357147,-3.9762279987335205,0.9467741295523673,0.4456576441013944,-0.6764942923890512,None
333,16.605,1.320831298828125,-0.2953643798828125,0.6663970947265625,0.5122109649861305,0.01594230403706426,0.16717639779576482,-4.596942901611328,-0.2747969329357147,-3.9762279987335205,0.8485373850295858,0.43331600690052324,-0.8086203338419945,None
334,16.655,1.19921875,-0.5610198974609375,-0.10040283203125,0.36733791899972656,-0.23913893647010287,-0.5524724394656708,-1.223276972770691,-0.29473575949668884,-0.8137003779411316,0.8146068993741498,0.419988023173212,-0.8318808310002734,None
335,16.705,0.9966583251953125,-0.6823577880859375,0.2107086181640625,0.16714551485835372,-0.3696301246698432,-0.2520114981278389,0.48828765749931335,-1.1653225421905518,0.0850701555609703,0.828523396940319,0.3664269843458774,-0.8295128103369588,None
336,16.755,0.71783447265625,-0.6833953857421875,-0.0834808349609375,-0.0038771163564927935,0.003691106416508938,0.00045089073179074846,0.3574734330177307,0.35069677233695984,0.631141722202301,-0.12125464674522363,0.3826850516149394,-0.7217115890127428,None
337,16.805,0.498687744140625,-0.821502685546875,0.186676025390625,-0.010706896058864324,0.017637778288266626,-0.004007960540486022,1.4923443794250488,-0.6027562022209167,0.27693119645118713,0.22158822341911777,0.35467179984452224,-0.5093946401994893,None
338,16.855,0.6276397705078125,-0.551361083984375,0.1946258544921875,-0.10405108419209463,0.09140548649982128,-0.03226537278754682,0.8967803120613098,-0.09163990616798401,0.24438656866550446,0.33286243407891813,0.35038396798211463,-0.7316908546999071,None
339,16.905,0.6182403564453125,-0.65692138671875,0.3320770263671875,-0.024908490738917544,0.026466923594833602,-0.01337916143720097,-0.48345881700515747,0.7551752924919128,0.9673285484313965,0.45113962154877485,0.38549091036578487,-0.64314884718423,None
340,16.954,0.382049560546875,-1.6653594970703125,0.42041015625,-0.2319398452602478,-0.9271229023450215,0.14108285761088996,-2.126382350921631,1.0226190090179443,0.7499674558639526,0.35388603866065665,0.43214567958673483,-0.6139894058071228,None
341,17.004,0.4128265380859375,-1.7564239501953125,-0.69677734375,-0.31195581759986946,-1.1083142984054861,-0.9305387951131417,-0.31127214431762695,0.518683910369873,-2.992269277572632,0.3392873033759284,0.45538529565926283,-0.724782355685807,None
342,17.054,1.711334228515625,0.058929443359375,-0.1328887939453125,0.9414081352930505,0.5969355602339436,-0.47605526838675843,4.432526588439941,1.6676487922668457,-1.3601375818252563,0.5377663253669746,0.5279520825685448,-0.7699260932225745,None
343,17.104,3.072479248046875,1.7880859375,1.22747802734375,2.260968903704735,2.1996136157553505,0.8126335612417395,4.432526588439941,1.6676487922668457,-1.3601375818252563,0.7099391584388168,0.5968503395712444,-0.8115103443421399,None
344,17.154,1.90032958984375,1.7291412353515625,1.0655670166015625,1.399821199174406,2.0619099802190277,0.2663446987769692,7.736997604370117,0.9915127158164978,8.450925827026367,0.9231755420631524,0.6358778851179896,-0.5005083906693438,None
345,17.204,-0.401763916015625,2.424591064453125,0.1169891357421875,-0.5032286292286514,2.432236080442174,-0.8778206278322989,7.736997604370117,0.9915127158164978,8.450925827026367,0.9999704724450358,0.6733429258804836,-0.10146471321302636,None
346,17.254,-5.9766693115234375,0.9698333740234375,2.15643310546875,-5.622007904023737,0.5773506235369388,1.3078032824004793,8.817532539367676,-1.5946177244186401,9.283830642700195,0.9076305218093266,0.6123188086182979,0.3546614074997006,None
347,17.303,-0.9195556640625,0.25201416015625,1.0044403076171875,-0.5289532312694651,-0.23548023159304687,0.22355686080252635,2.497872829437256,-0.17448684573173523,0.7746802568435669,0.8482705044968528,0.6053980326474808,0.39060243279303486,None
348,17.353,-2.6633148193359375,-0.943817138671875,1.5487518310546875,-2.2373573180907207,-1.5148066549404622,0.8469461745910936,2.497872829437256,-0.17448684573173523,0.7746802568435669,0.7756959966611456,0.5984311776132796,0.42595750124521664,None
349,17.403,-2.5257720947265625,0.952392578125,0.9155120849609375,-2.241769178539095,0.5164900178910083,0.06150312623833376,-4.2206196784973145,-0.9073778390884399,-3.0410714149475098,0.8906842951755576,0.5614794786951653,0.2840029161874672,None
350,17.453,-0.7754364013671875,0.8070831298828125,1.06280517578125,-0.7388016504864626,0.7265395115586185,0.06672755803494512,-7.825258731842041,0.587881326675415,-5.026468276977539,0.9967467116790849,0.585556746844206,0.03663475088072489,Straight
351,17.503,0.4614105224609375,0.2801513671875,0.607818603515625,0.25220350565054694,0.6177526664083811,-0.30992743264125766,-8.663616180419922,2.2488551139831543,-4.948138236999512,0.9385140628353588,0.6728166178741544,-0.20920701681039053,None
352,17.553,1.237030029296875,-0.18084716796875,0.5277862548828125,0.8213928433109543,0.35508419103813005,-0.20707652690623934,-5.552435398101807,1.0303807258605957,-4.357585906982422,0.8079583720902163,0.7100213204907663,-0.41563718598592075,None
353,17.602,1.8083953857421875,-0.4047088623046875,0.1970062255859375,1.2627763966762164,0.15522418084940248,-0.4265119425173085,-2.0320775508880615,-0.4590328335762024,-2.9696860313415527,0.7440254709044124,0.6936736447353516,-0.5456189890659711,None
354,17.652,1.7610931396484375,-0.4353485107421875,0.34381103515625,1.2442354037582781,0.13932004930988062,-0.29070778011890064,-0.08442087471485138,-1.6569772958755493,0.6790251135826111,0.7411985553935379,0.6316874229963257,-0.5168577358901594,None
355,17.702,0.6840362548828125,-0.811981201171875,0.1861114501953125,0.04943216471445322,-0.058678159519840345,0.013449421424126529,0.21764390170574188,-1.6172298192977905,1.219480037689209,0.22341313773912788,0.5670059654288466,-0.6346040901683593,None
356,17.752,0.5174407958984375,-0.946319580078125,-0.0775146484375,0.0389181733605653,-0.07117534945815629,-0.005830094089577895,-1.1986943483352661,-0.5963432788848877,0.48048698902130127,-0.0816382837771527,0.5421967652103865,-0.4785226225378722,None
357,17.802,0.4524993896484375,-1.00592041015625,-0.2656402587890625,-0.019940897178058414,-0.12934521246735564,-0.17390096415489847,-0.45095306634902954,-0.4422101676464081,0.1382785141468048,-0.1040880180388125,0.5234873622684546,-0.4724402868264959,None
358,17.852,0.480072021484375,-0.9006195068359375,-0.234130859375,0.02159084896047725,-0.04050463029032636,-0.010529845097246499,-0.01372513361275196,-0.3730987310409546,-0.6679255962371826,-0.2516034403669733,0.5075025685076718,-0.45848117252389775,None
359,17.902,0.6405792236328125,-0.815460205078125,-0.1598663330078125,0.030053487681342084,-0.03825822368848486,-0.007500307054082139,0.09883549809455872,0.19809870421886444,-0.15395601093769073,-0.19238221605234382,0.5160121240360805,-0.6105257359514704,None
360,17.951,0.465484619140625,-0.896026611328125,-0.1404876708984375,0.008880524597371708,-0.01709441307961912,-0.0026802265117683577,0.1311577558517456,0.16262805461883545,-0.07589556276798248,-0.15489725975672605,0.5229601954408135,-0.4566040945432533,None
361,18.001,0.4840087890625,-0.79150390625,-0.0787353515625,-0.03581742552378431,0.058572556644695184,0.005826542109165347,-0.22557879984378815,0.18572112917900085,-0.07549209147691727,-0.09898707951315018,0.5308525703980054,-0.5198262145862843,None
362,18.051,0.417877197265625,-0.7972564697265625,-0.1648101806640625,-0.03877102706147645,0.07397018158676272,0.01529123870923102,-0.3429568111896515,0.19096729159355164,-0.03555586189031601,-0.20244136095025328,0.538920145400977,-0.45664822432710145,None
363,18.101,0.4892120361328125,-0.756378173828125,-0.0790252685546875,-0.05179770769175429,0.08008522411279306,0.008367185307245298,-0.7995880246162415,0.06072300300002098,-0.13090021908283234,-0.1039129103409068,0.5414751794366293,-0.5410097438245668,None
364,18.151,0.491302490234375,-0.8395233154296875,-0.22271728515625,-0.001039811492416054,0.0017767994441034718,0.00047136743099870926,-0.865456759929657,-0.1035865768790245,0.0465075820684433,-0.2564202960957661,0.5371135878238541,-0.49234230172679105,None
365,18.201,0.4717864990234375,-0.845428466796875,-0.325714111328125,0.009920892456777186,-0.017777967187172727,-0.006849230905992099,-0.899070680141449,-0.41295427083969116,0.06882540136575699,-0.3595071977042621,0.5195837847879905,-0.4618656065666603,None
366,18.251,0.41241455078125,-0.8812408447265625,-0.4083404541015625,0.02156842320336405,-0.04608706324048695,-0.021355356420942107,-0.44254574179649353,0.22087405622005463,0.15576483309268951,-0.4204275758422228,0.5289878632987586,-0.39084612757788595,None
367,18.3,0.40069580078125,-0.9123077392578125,-0.304107666015625,0.016076490631539098,-0.03660309590133637,-0.01220123603528478,0.08255746215581894,-0.07540740817785263,0.08579852432012558,-0.31623252616126885,0.5257844637817831,-0.3846193101497109,None
368,18.35,0.4059600830078125,-0.8666534423828125,-0.2769012451171875,-0.001517403303710363,0.0032393894170584803,0.0010350053656240643,0.11884383112192154,-0.16501665115356445,-0.07155993580818176,-0.3043491111179551,0.5187483414890673,-0.40747748631152286,None
369,18.4,0.45404052734375,-0.8221893310546875,-0.3035736083984375,-0.005948155240300013,0.010771086463673973,0.003976964259502835,0.1598256230354309,-0.07955767959356308,-0.00019520970818120986,-0.34637007568540973,0.5153434458630164,-0.45998868258405,None
370,18.45,0.453704833984375,-0.819671630859375,-0.3084259033203125,-0.006290626563869972,0.01136476349492066,0.004276331295335278,0.46559619903564453,-0.1592050939798355,0.15226250886917114,-0.3521733809745856,0.5085053816028433,-0.45999546054824497,None
371,18.5,0.4267120361328125,-0.8436126708984375,-0.1995849609375,-0.014913879952161091,0.029484844659936615,0.0069756320319781795,0.4891185462474823,-0.28109878301620483,0.054673898965120316,-0.2302282194051464,0.49635342625896484,-0.4416259160849736,None
372,18.55,0.4599609375,-0.7996368408203125,-0.202484130859375,-0.027054435711449387,0.0470338277421215,0.01190991115614809,0.14502324163913727,-0.1358579695224762,0.07498582452535629,-0.24547247861640942,0.4904449652100439,-0.4870153732114494,None
373,18.6,0.4873046875,-0.80419921875,-0.2288970947265625,-0.016224223503842672,0.026774845802433833,0.007620853481373396,0.11264318972826004,-0.08997942507266998,0.12778699398040771,-0.27375447641574296,0.486519286736581,-0.5035289110038427,None
374,18.649,0.5297698974609375,-0.74169921875,-0.288543701171875,-0.024353812293941624,0.03409631924836298,0.013264511952488067,0.7650984525680542,-0.1367938071489334,0.1931859701871872,-0.3625609878559979,0.4805323221962728,-0.5541237097548791,None
375,18.699,0.51202392578125,-0.810028076171875,-0.4201202392578125,0.022673595754905462,-0.03586990416750835,-0.018603889376559213,2.687727451324463,-0.6241410970687866,0.5690720081329346,-0.4604084373446564,0.4529349228096511,-0.48935033002634454,None
376,18.749,-0.07122802734375,-2.15478515625,0.1247406005859375,-0.4909474109168944,-1.4024256789116794,0.6324716868040148,-2.3038508892059326,1.657155990600586,1.5641701221466064,-0.5593884132016042,0.525167861069981,-0.4197193835731444,None
377,18.799,0.468017578125,-1.585174560546875,-1.5525054931640625,-0.06796763800168049,-0.8601787225309945,-1.1199538974517282,1.1142526865005493,4.244288444519043,-2.650763750076294,-0.5123638635119687,0.6926284463774967,-0.5359852161266805,None
378,18.849,2.01861572265625,0.374053955078125,0.58782958984375,1.4603910969597478,1.1976862630204133,0.6879050043053434,8.340457916259766,2.1101503372192383,-0.5314026474952698,-0.1206178585920007,0.7647377915911411,-0.5582246256965022,None
379,18.899,2.8009796142578125,1.16448974609375,0.845123291015625,2.3244237570598836,2.022042278141974,0.65147884945319,6.859961986541748,1.5910006761550903,1.9102305173873901,0.22026471054795324,0.8135227102006832,-0.47655585719792876,None
380,18.949,4.096832275390625,3.0624237060546875,1.052642822265625,3.7062892405455736,3.8398976506532816,0.5596819684401724,6.859961986541748,1.5910006761550903,1.9102305173873901,0.5354867063636098,0.8571622022887705,-0.3905430348450514,None
381,18.998,-1.6184234619140625,3.233673095703125,0.0828399658203125,-1.5323097272315964,3.856362766047146,-0.6948759200569737,6.611325263977051,0.2477876991033554,9.748838424682617,0.7806156286836912,0.8634773641333606,0.08611373468246614,None
382,19.048,-5.1807098388671875,3.8845672607421875,1.4239654541015625,-4.580306242999113,3.9525047302830134,0.6271593156330669,11.80179214477539,-2.9272751808166504,11.1557035446167,0.9963848745489048,0.7806842410846551,0.6004035958680746,None
383,19.098,-1.6117095947265625,-1.010345458984375,1.850006103515625,-1.0111444716704368,-1.174908167445744,1.0675480228797107,5.84700870513916,-2.783611536026001,0.004040015395730734,0.9785914430501216,0.686438051905369,0.6005651230561259,None
384,19.148,-1.7290191650390625,0.1123046875,0.9520111083984375,-1.288119923631454,0.1501380016772271,0.05525222259659468,-4.989157199859619,-1.2321429252624512,-3.752147912979126,0.9991112325919735,0.6403641354015758,0.4408992414076084,None
385,19.198,-1.5881500244140625,1.1396484375,0.107421875,-1.3343820971219202,1.2911280680055288,-0.8479083090828429,-2.3017895221710205,-2.5713706016540527,-4.0005316734313965,0.9876611393230287,0.5366008645175754,0.2537679272921423,Straight
386,19.248,-1.0940093994140625,0.63641357421875,0.59527587890625,-0.9883193474191181,0.9663952298478172,-0.34277620912383666,-3.6200056076049805,0.17523227632045746,-3.0137181282043457,0.9433355960554314,0.5439735405421058,0.10569005199494437,None
387,19.298,-0.1983795166015625,0.1530914306640625,1.1225738525390625,-0.19387821703916153,0.7877899993558198,0.34982715070017134,-6.987460136413574,2.183522939682007,-2.0277299880981445,0.7727545305379135,0.6321629141911869,0.0045012995624009716,None
388,19.347,0.29632568359375,-0.608154296875,0.5248870849609375,-0.0497474114562354,0.10209746812562903,-0.0881184967396006,-6.553133487701416,2.1314942836761475,-2.6584584712982178,0.6533794996740092,0.710997842472664,-0.3460730950499854,None
389,19.397,0.701446533203125,-0.9494476318359375,0.794921875,0.19407509775698684,-0.19405306246918919,0.3802493884946254,-4.200094223022461,-0.4378353953361511,-3.5749876499176025,0.48121071061736265,0.6954345408496873,-0.5073714354461382,None
390,19.447,1.4178009033203125,-0.6097412109375,0.201751708984375,0.7652992074203195,0.1159622807574161,-0.016413317977876762,-4.200094223022461,-0.4378353953361511,-3.5749876499176025,0.28789745809516637,0.6795379658230547,-0.652501695899993,None
391,19.497,1.564178466796875,-0.68218994140625,-0.199554443359375,0.8821588570132577,0.03081654887946761,-0.36225354194644566,-1.3536887168884277,-0.38973337411880493,-0.7927910685539246,0.22246897326214457,0.6651136477939187,-0.6820196097836173,None
392,19.547,0.6934661865234375,-1.005126953125,0.220672607421875,0.017005554572384174,-0.29798534466507665,0.014877177431085437,1.1771174669265747,-1.2068418264389038,0.15148939192295074,0.2794315760067441,0.6188704772096031,-0.6764606319510533,None
393,19.597,0.614410400390625,-0.9021148681640625,0.2390899658203125,-0.05043464988965596,-0.18917248610572113,0.016167963804386176,0.39691486954689026,-0.8863481879234314,0.31319600343704224,0.298430499801629,0.5834632125002169,-0.664845050280281,None
394,19.646,0.37408447265625,-0.895721435546875,-0.0421600341796875,-0.010929035798161624,0.02616887989164962,0.0012317231975168333,-1.4370806217193604,-0.32548728585243225,-0.2905692458152771,-0.0470161915093347,0.5701694758728965,-0.3850135084544116,None
395,19.696,0.5982818603515625,-0.697967529296875,-0.3000030517578125,-0.020412867258728817,0.023814057337569916,0.01023584848309983,-1.4370806217193604,-0.32548728585243225,-0.2905692458152771,-0.39489112288429656,0.5567247303801691,-0.6186947276102913,None
396,19.746,0.64794921875,-0.89532470703125,-0.319488525390625,0.0350833506784467,-0.17805441834480318,0.012051458201946585,-0.5404789447784424,-0.47555187344551086,0.1479569673538208,-0.4195715715870956,0.5368172434031062,-0.6128658680715533,None
397,19.796,0.366241455078125,-0.8671417236328125,-0.5592193603515625,0.03174213072839355,-0.07515513487058878,-0.04846751725126619,-0.8445480465888977,-0.9796760082244873,0.5357875227928162,-0.5419715793658725,0.4948623126121347,-0.33449932434973145,None
398,19.846,0.33648681640625,-0.858123779296875,-0.2420806884765625,-0.016596031665542244,0.04232394471280454,0.011939780626420704,-0.6602490544319153,-0.5190879106521606,0.6215817928314209,-0.2715077222352217,0.47214454942359774,-0.35308284807179224,None
399,19.896,0.2548675537109375,-0.9007720947265625,-0.2769622802734375,-0.006201475333241779,0.021917720969123144,0.006739087515636011,-0.016396816819906235,-0.7869491577148438,0.590796172618866,-0.29389355681013457,0.43710243763994855,-0.2610690290441793,None
400,19.946,0.1683349609375,-0.89105224609375,-0.3796234130859375,-0.00289916132323198,0.01534621325520813,0.0065380923278360314,0.35447314381599426,-0.3634711503982544,0.5496149063110352,-0.3919504701483691,0.420685645872506,-0.17123412226073198,None
401,19.995,0.216156005859375,-0.999237060546875,-0.2869720458984375,0.012592840822120588,-0.0582136646955661,-0.016718449621743903,0.3962900936603546,0.02918877825140953,0.41468319296836853,-0.27603323110053435,0.4220092098109693,-0.2035631650372544,None
402,20.045,0.1115570068359375,-1.023681640625,-0.439453125,-0.09369613978931504,-0.07709072300737096,-0.19078310170759014,0.4553704559803009,1.1995002031326294,-0.03452868387103081,-0.2540796540905081,0.47559069969821743,-0.20525314662525254,None
403,20.095,0.283203125,-0.9973907470703125,-0.168365478515625,0.01358846181343315,-0.047856131812233804,-0.008078399119042068,0.4767780005931854,0.3989202082157135,-0.0056983656249940395,-0.16645104574632855,0.4930407751142703,-0.26961466318656685,None
404,20.145,0.3630218505859375,-0.921112060546875,-0.0926513671875,-0.0020471014096773987,0.005194204686502779,0.0005224664688143477,0.36810290813446045,0.39963608980178833,0.08103599399328232,-0.10008140377536934,0.5103254866160158,-0.3650689519956149,None
405,20.195,0.2275543212890625,-0.9254150390625,-0.0572509765625,-0.010797388897717253,0.043910684762875074,0.0027165428246653453,0.08799803256988525,0.5193172097206116,-0.04657282680273056,-0.06174713966937901,0.5324811051545665,-0.23835171018677975,None
406,20.245,0.293365478515625,-0.9166412353515625,-0.01190185546875,-0.011424911453347397,0.03569794578887642,0.00046350935886852775,0.3253256380558014,0.09770232439041138,-0.5030130743980408,-0.012983108191719325,0.5366097020646073,-0.3047903899689724,None
407,20.295,0.4417877197265625,-0.8501434326171875,-0.1610260009765625,-0.01295131696525359,0.02492255119397313,0.004720590195638197,0.3411562740802765,-0.015304121188819408,-0.1488611102104187,-0.18610149225856057,0.5359638407604755,-0.4547390366918161,None
408,20.344,0.234954833984375,-1.05059814453125,-0.0767822265625,0.017259905530749492,-0.07717749159651655,-0.005640462698449797,0.2544514536857605,0.48853400349617004,0.3600974678993225,-0.07288989208458649,0.5564239232253925,-0.2176949284536255,None
409,20.394,0.3339691162109375,-0.972930908203125,-0.054779052734375,0.00976249938476742,-0.028440466293760513,-0.0016012871929141845,0.09336243569850922,-0.14111104607582092,0.5831265449523926,-0.05621409722738513,0.550547674051196,-0.3242066168261701,None
410,20.444,0.18365478515625,-0.9761962890625,-0.14697265625,0.0007564792399195608,-0.004020980047614975,-0.0006053845163596638,0.1424998939037323,0.21335861086845398,0.03346501663327217,-0.14887857982707467,0.5594218061154786,-0.18289830591633044,None
411,20.494,0.299835205078125,-0.97698974609375,-0.0756378173828125,0.007244285072553036,-0.023604940693406018,-0.0018274769009998665,0.20868317782878876,0.2574531137943268,0.0949518084526062,-0.07718827639966526,0.570045089648327,-0.29259092000557196,None
412,20.544,0.2480926513671875,-0.92169189453125,-0.0148162841796875,-0.01179562336433665,0.043822057549627424,0.0007044437103615048,0.20868317782878876,0.2574531137943268,0.0949518084526062,-0.016073017795267697,0.5805739150131769,-0.25988827473152415,None
413,20.594,0.4268646240234375,-0.8275909423828125,0.04095458984375,-0.031098906645876556,0.06029352635397334,-0.00298371636952785,0.017912687733769417,-0.009130913764238358,0.35720181465148926,0.04942602983202527,0.5802021315756452,-0.45796353066931406,None
414,20.644,0.1964263916015625,-0.909759521484375,-0.1405487060546875,-0.012254682170007691,0.05675822732387159,0.008768575892794311,0.1758567839860916,0.4301183521747589,-0.08468373119831085,-0.1526786947138445,0.5975825924474968,-0.2086810737715702,None
415,20.693,0.33734130859375,-0.9773712158203125,-0.0155181884765625,0.011113584982592739,-0.032199134199837665,-0.000511240995444983,-0.13805267214775085,-0.045282792299985886,0.42313820123672485,-0.015875475532780983,0.5957656584858428,-0.32622772361115726,None
416,20.743,0.202911376953125,-1.010040283203125,-0.111602783203125,0.007097818161904024,-0.03533110057219713,-0.003903853364127477,-0.2219502329826355,0.03586718812584877,0.16655489802360535,-0.1098250166966939,0.5972050512020675,-0.19581355879122098,None
417,20.793,0.1960906982421875,-1.000946044921875,-0.115234375,0.005055115703067076,-0.025803865838440077,-0.002970681953899726,-0.14016057550907135,-0.04649000242352486,-0.0167361032217741,-0.11437003311080529,0.595338984388045,-0.19103558253912042,None
418,20.843,0.13714599609375,-0.9990997314453125,-0.1805267333984375,0.003279656657577401,-0.023892087112616145,-0.004317046942122843,0.3775408864021301,0.02876959554851055,-0.2982865571975708,-0.1778100845885637,0.5964941500628989,-0.1338663394361726,None
419,20.893,0.3686676025390625,-0.936492919921875,-0.00555419921875,0.002367012920878264,-0.006012708538801537,-0.000035660473622769334,0.5862107276916504,-0.016574982553720474,-0.3528773784637451,-0.005930745891123024,0.595828776805655,-0.36630058961818424,None
420,20.943,0.3027801513671875,-0.92926025390625,-0.0126190185546875,-0.006993123996948958,0.021462543537478784,0.00029145358793903134,0.3428577482700348,0.007708786055445671,-0.16848275065422058,-0.01357838683776709,0.5961382832723602,-0.30977327536413646,None
421,20.993,0.292938232421875,-0.9342803955078125,0.053985595703125,-0.005790656664703353,0.01846838821351815,-0.0010671602916830641,0.1698971539735794,0.23720775544643402,-0.0556667260825634,0.0576868520483241,0.6056186206906369,-0.29872888908657835,None
422,21.042,0.323699951171875,-0.9382476806640625,0.02081298828125,-0.0023687629307919678,0.00686588403184063,-0.00015230473449594217,0.031006917357444763,-0.17725014686584473,0.02052444964647293,0.022177373622292194,0.5985425444010432,-0.32606871410266697,None
423,21.092,0.260833740234375,-0.9904937744140625,-0.0423431396484375,0.00639571311902859,-0.024287172440359495,-0.001038265116725369,-0.05564435198903084,0.09117358922958374,0.022882679477334023,-0.042710516898939295,0.6021882296199091,-0.2544380271153464,None
424,21.142,0.2177276611328125,-1.053680419921875,-0.0516357421875,0.015599958910254952,-0.07549509864662873,-0.003699646853479864,0.11851280182600021,-0.02574584260582924,-0.1354752629995346,-0.048946389230042305,0.6011600159502005,-0.20212770222255755,None
425,21.192,0.26654052734375,-0.963104248046875,0.0566253662109375,0.00024223158774305809,-0.0008752675380792052,0.00005146103859127865,0.19125810265541077,-0.3597989082336426,-0.2713092565536499,0.05869328038635994,0.5866872336645841,-0.26629829575600694,None
426,21.242,0.344207763671875,-0.8820037841796875,0.05474853515625,-0.018738654715312553,0.048016245168419736,-0.002980507718704707,0.15144358575344086,-0.34148091077804565,-0.15383084118366241,0.0619536624070693,0.5727755965887441,-0.36294641838718755,None
427,21.292,0.3631744384765625,-0.914093017578125,0.067413330078125,-0.005192580446805373,0.0130694812926484,-0.0009638595190954169,-0.2035778909921646,0.002796585438773036,-0.15667429566383362,0.07354913141073612,0.5728902107511199,-0.3683670189233679,None
428,21.342,0.3643035888671875,-0.93505859375,-0.0897369384765625,0.0027205126930889834,-0.0069827442024080755,-0.0006701292208609461,-0.16684012115001678,0.046486809849739075,0.08282937109470367,-0.09553040663981668,0.5747937656172701,-0.3615830761740985,None
429,21.391,0.2743682861328125,-0.9490814208984375,-0.0870361328125,-0.002276640543348085,0.007875244155258865,0.0007222044190674792,0.12749190628528595,0.1189170628786087,0.1410689800977707,-0.09132245084840172,0.5796490581777174,-0.2766449266761606,None
430,21.441,0.2907867431640625,-0.9189605712890625,0.013092041015625,-0.01087210055619764,0.03435862181859706,-0.0004894926944022174,0.17305514216423035,0.13975603878498077,0.14339178800582886,0.01424512978507651,0.5853289837519127,-0.30165884372026014,None
431,21.491,0.341583251953125,-0.8951568603515625,0.015106201171875,-0.014888254803504308,0.03901632574142677,-0.0006584192019780874,0.17305514216423035,0.13975603878498077,0.14339178800582886,0.016873077015388517,0.5909803281934106,-0.3564715067566293,None
432,21.541,0.3387298583984375,-0.86138916015625,0.0099945068359375,-0.027207188169738772,0.06918780965620508,-0.0008027707667550062,0.4123084545135498,0.3675319254398346,0.3617246448993683,0.011601996651041597,0.6057038522068785,-0.36593704656817627,None
433,21.591,0.2895965576171875,-0.9140777587890625,0.1314849853515625,-0.009626355456982205,0.03038446828866226,-0.0043706362280845346,0.2225870043039322,0.7738826274871826,0.47340458631515503,0.14237896498499863,0.6360313255505616,-0.2992229130741697,None
434,21.641,0.07769775390625,-1.6274566650390625,0.2611236572265625,-0.2371026169659569,-0.6814292998755471,0.18409800656071104,-1.232470989227295,1.2310198545455933,-0.3273634910583496,0.08115156640528118,0.6822935493457645,-0.3148003708722069,None
435,21.69,0.5966949462890625,-2.0692901611328125,-0.965576171875,0.2664014561502817,-1.125593495087647,-0.9840913782519867,-1.232470989227295,1.2310198545455933,-0.3273634910583496,0.019616095357850555,0.7259717031450341,-0.3302934901387808,None
436,21.74,1.6806182861328125,-0.5076446533203125,-0.649383544921875,1.3257590581982495,0.3621402141167105,-0.9922380515675455,7.117288589477539,2.384449005126953,-0.5229798555374146,0.3667207893754515,0.802616440496846,-0.3548592279345629,None
437,21.79,3.252227783203125,1.61529541015625,1.852813720703125,2.873045445678715,2.303990328087541,1.2348169044288526,7.117288589477539,2.384449005126953,-0.5229798555374146,0.6678721935459396,0.8678663004897116,-0.37918233752440994,None
438,21.84,2.185760498046875,1.9495849609375,1.094512939453125,2.184913780974995,2.402726547196729,0.20307478350922015,7.383271217346191,-1.9086382389068604,7.76131534576416,0.891438475493366,0.8165789246734381,-0.0008467170718804191,None
439,21.89,-2.1841278076171875,1.8384246826171875,0.4630889892578125,-1.912524650940376,1.9195098590120632,-0.4958984556298687,7.718685626983643,-4.523677349090576,5.518102645874023,0.9964444560831054,0.6663294981163151,0.27160315667681156,None
440,21.94,-4.8360137939453125,1.9680023193359375,1.4744720458984375,-4.312505359980428,1.7149256607338925,0.6609051313557809,7.718685626983643,-4.523677349090576,5.518102645874023,0.9548677781164693,0.4821363082830157,0.5235084339648844,None
441,21.99,-1.461517333984375,-1.2071685791015625,1.528045654296875,-0.8541181120113059,-1.6388750682597195,0.8611905783131584,5.458938121795654,-0.6594695448875427,2.0363805294036865,0.8394484014884815,0.452991526429643,0.6073992219730691,None
442,22.039,-1.9882049560546875,-0.6375274658203125,1.678253173828125,-1.4989892605778257,-0.9793438257017807,0.8758632565083265,-3.4362680912017822,-0.33982494473457336,-2.831846237182617,0.9200001296229885,0.4377789182306196,0.4892156954768618,Straight
443,22.089,-2.27435302734375,1.72613525390625,0.8684234619140625,-2.044552712706853,1.5546739360334234,-0.08959158591456984,-4.51230001449585,-3.3505187034606934,-5.586355209350586,0.9843586508933476,0.2817340242465015,0.2298003146368969,None
444,22.139,-0.898956298828125,0.647918701171875,0.7389678955078125,-0.8681551635624896,0.7155885257945684,-0.258264316618271,-4.897085666656494,1.035498023033142,-4.021329879760742,0.9977055910300775,0.3310119346773273,0.030801135265635438,None
445,22.189,0.4969024658203125,-0.0662841796875,1.2352752685546875,0.31880476046086,0.22227030335728476,0.29452157195793505,-4.597260475158691,0.6272921562194824,-4.197178363800049,0.9560380601191076,0.3604407583305616,-0.17809770535945252,None
446,22.239,0.5748748779296875,-0.30023193359375,0.705535888671875,0.2265638448744195,0.1013571681577406,-0.14146211463533642,-2.9024665355682373,-0.7608686089515686,-3.534315824508667,0.9035811412733665,0.32470228440824916,-0.348311033055268,None
447,22.289,1.45025634765625,-0.357757568359375,1.3668060302734375,0.9800561807473531,0.16888504151912742,0.6585974702438336,-3.9333882331848145,-1.3493582010269165,-2.6749773025512695,0.8024482407990685,0.26019970842371337,-0.4702001669088969,None
448,22.339,1.1324462890625,-0.252166748046875,-0.089447021484375,0.6018527871041541,0.38233872143803616,-0.6514731284165275,-4.129785060882568,-0.25422561168670654,-1.3956607580184937,0.6630587466880189,0.24790557987658413,-0.5305935019583459,None
449,22.388,1.2554168701171875,-0.488433837890625,0.1259918212890625,0.7093604685516403,0.15422410320534397,-0.4114215922535991,-0.568978488445282,-0.6303777098655701,-0.3669798672199249,0.6414973805040819,0.21725250770076548,-0.5460564015655472,None
450,22.438,0.7653350830078125,-0.5386810302734375,0.4495086669921875,0.028199012009353708,-0.01984787210092742,0.01656228831037626,-0.06575024873018265,0.06517767161130905,-0.014191985130310059,0.6406955310656828,0.22043239499831177,-0.7371360709984588,None
451,22.488,0.7930145263671875,-0.44549560546875,0.5450286865234375,0.06008528115903289,0.09302056370152922,0.12931838227206105,-0.7599772214889526,-0.4494502544403076,0.12409025430679321,0.6110647154978528,0.19845884196566027,-0.7329292452081546,None
452,22.538,0.6916351318359375,-0.3839111328125,0.2035064697265625,-0.016638896805255432,0.20671554826180139,-0.1831562049079697,-1.5551440715789795,0.22941695153713226,0.7113507986068726,0.547729250566171,0.2096882224164564,-0.7082740286411929,None
453,22.588,0.6271820068359375,-0.642730712890625,0.11932373046875,-0.06512998165383865,0.06674464363241084,-0.012391223427317466,-0.5639499425888062,-0.6439629793167114,0.9537003636360168,0.1825322390397903,0.17810264779282925,-0.6923119884897762,None
454,22.638,0.12164306640625,-2.0059661865234375,-0.1344451904296875,-0.5229065173305992,-1.2499363191301045,-0.24835161568249747,-0.6804429888725281,-0.09999983757734299,1.285082221031189,0.14898248806141592,0.17318039044312977,-0.6445495837368492,None
455,22.688,0.45269775390625,-1.83642578125,-0.640960693359375,-0.25935468984022336,-1.145502153723506,-0.7658841030162759,0.5866943597793579,2.0144312381744385,-1.8396611213684082,0.17792156862950367,0.2713347188584961,-0.7120524437464734,None
456,22.737,1.5410003662109375,0.194427490234375,-0.4024658203125,0.8193834564762781,0.7886555654451206,-0.7576587681821515,7.197619915008545,1.9146900177001953,-0.27435991168022156,0.5130676696433812,0.36209460441114716,-0.7216169097346594,None
457,22.787,2.164276123046875,1.3215789794921875,1.3526458740234375,1.5167752622808501,1.7772238694070441,0.7418018926323338,7.823045253753662,2.5431525707244873,2.0366930961608887,0.8015644426208715,0.4773809064508311,-0.6475008607660249,None
458,22.837,2.4676361083984375,0.80322265625,1.265594482421875,1.9009602719367065,1.0068588262465716,0.4672143682910652,7.823045253753662,2.5431525707244873,2.0366930961608887,0.9689774824892534,0.5849588016585658,-0.566675836461731,None
459,22.887,1.7381591796875,1.745635986328125,0.4936676025390625,1.5031578196822868,1.8877393041981259,-0.4678837522236655,2.0602688789367676,0.43739598989486694,7.304915904998779,0.9892554114581117,0.6025552892079417,-0.23500136000521313,None
460,22.937,-5.41766357421875,2.603607177734375,-0.3896484375,-5.289987196702873,2.6469456493247407,-1.3805170057292249,2.0602688789367676,0.43739598989486694,7.304915904998779,0.9990448699176716,0.6198635932013624,0.127676377515877,None
461,22.987,-3.4508209228515625,0.4550628662109375,-0.0599517822265625,-2.962648794220901,0.16350859098413867,-0.8825598769017763,7.686459541320801,3.2851316928863525,7.639366149902344,0.9425500693776087,0.7398352473963223,0.4881721286306611,None
462,23.037,-1.8632659912109375,-0.786163330078125,2.02734375,-1.3324254209204804,-1.0852990519839736,1.2344212387710847,0.4027027189731598,-2.3220643997192383,0.9919595718383789,0.9356330218076991,0.6569168842046499,0.530840570290457,None
463,23.086,-2.56402587890625,0.14691162109375,0.723876953125,-2.2385709228105664,-0.00032333457341146565,-0.21014710405042714,-4.087991714477539,-2.5132384300231934,-4.561985492706299,0.9878024471137018,0.5572417593064771,0.3254549560956836,None
464,23.136,-1.99554443359375,1.0063629150390625,0.5270538330078125,-1.9087070627873688,1.1258814893476883,-0.46197325531013067,-5.532199382781982,-1.870465874671936,-4.890919208526611,0.99277730382318,0.477262609327136,0.08683737080638128,Straight
465,23.186,-0.772552490234375,0.370697021484375,0.4284210205078125,-0.9385487083543816,0.7348149682058114,-0.4880195811927126,-5.158607006072998,-1.0720977783203125,-5.074300765991211,0.9293338173416735,0.4294937559248525,-0.16599621812000667,None
466,23.236,0.6038360595703125,0.26678466796875,1.077667236328125,0.17683240629782054,0.8618554837561795,0.3968158543878161,-6.80154275894165,-0.1178765669465065,-5.488167762756348,0.7529460413420996,0.42416378850361663,-0.42700365327249196,None
467,23.286,1.4847412109375,0.049560546875,0.3920745849609375,0.8778946889178391,0.7326697424221789,-0.014249332217866229,-6.318575382232666,1.0993489027023315,-4.218209266662598,0.5112156342326704,0.47327581932737467,-0.6068465220196609,None
468,23.336,2.0842132568359375,0.140716552734375,0.786956787109375,1.3244184369974472,0.7751137102118635,0.6446469900781142,-6.318575382232666,1.0993489027023315,-4.218209266662598,0.21888328464196496,0.5209582451209095,-0.7597948198384904,None
469,23.386,1.4823150634765625,-0.3113555908203125,0.382843017578125,0.7785988253751024,0.3871177234034545,0.25277193874199055,-0.7311362624168396,-0.46981969475746155,1.647656798362732,0.1830746387881148,0.5007648710551826,-0.7037162381014601,None
470,23.435,0.5012664794921875,-0.843414306640625,0.4124298095703125,0.03027992886862657,-0.05094800122627818,0.024913585503945124,1.3475788831710815,-0.910058856010437,1.9606457948684692,0.4392908748937913,0.4608735396966079,-0.47098655062356093,None
471,23.485,0.1304779052734375,-1.187103271484375,0.370758056640625,-0.29904545339159994,-0.41504589604096387,-0.09768307454293956,1.8110874891281128,-1.1978083848953247,0.9288780689239502,0.5187289180276137,0.4069283101192175,-0.42952335866503744,None
472,23.535,0.383941650390625,-0.8961944580078125,0.495849609375,0.032931798854424155,-0.076869221131742,0.04253047196460441,-0.23562291264533997,0.13461613655090332,0.015206117182970047,0.4841230309159815,0.413067369502583,-0.35100985153620085,None
473,23.585,0.4004364013671875,-0.9040985107421875,0.104888916015625,-0.002272634931005324,0.005131116575734174,-0.0005952860768867752,-0.01296213734894991,0.3060997426509857,0.05673332139849663,0.11524196438123885,0.4269567062972339,-0.4027090362981928,None
474,23.635,0.51446533203125,-1.5662994384765625,0.5075225830078125,0.09525625748625705,-0.667322803595561,0.3806180450386718,0.49480652809143066,1.128754734992981,-0.3619883060455322,0.13977968309049166,0.47728489185079853,-0.41920907454499295,None
475,23.685,0.8870086669921875,-1.431304931640625,0.4899139404296875,0.4102341053792885,-0.5720508800605293,0.30452652920115214,1.4451545476913452,1.4504646062850952,-1.2881547212600708,0.21090103609697092,0.5397041109575677,-0.476774561612899,None
476,23.735,1.7620086669921875,-0.164459228515625,-0.079193115234375,1.2789230808536358,0.6031028162062061,-0.5004730981051656,5.78933572769165,0.31403276324272156,-0.14387328922748566,0.48114767979382606,0.5528555386245381,-0.4830855861385517,None
477,23.784,2.2335205078125,0.8774566650390625,1.0535125732421875,1.7441488961439193,1.4903762026402374,0.4331537527844964,5.78933572769165,0.31403276324272156,-0.14387328922748566,0.711359192225834,0.565870667290679,-0.4893716116685807,None
478,23.834,2.2790374755859375,1.7229461669921875,0.977874755859375,1.8415450901522465,2.0751720828365183,0.15050705229876293,7.5377373695373535,1.3178706169128418,1.1712182760238647,0.9200926995246552,0.6189321336209134,-0.43749238543369107,None
479,23.884,-1.213165283203125,3.9907684326171875,-0.9780426025390625,-1.4761339915834695,4.258082256579294,-1.905075923370374,2.434814929962158,-0.5447410941123962,3.734204053878784,0.9608510871295869,0.5973120192450709,-0.26296870838034436,None
480,23.934,-6.8759765625,1.4961700439453125,1.3363189697265625,-6.53710382667344,1.3579046128583367,0.4057020026129412,8.564669609069824,1.4286175966262817,12.236328125,0.989142320914622,0.653028312994763,0.33887273582656036,None
