Index,Time,Acceleration X,Acceleration Y,Acceleration Z,Orientation X,Orientation Z,Punch Type,Raw Acceleration X,Raw Acceleration Y,Raw Acceleration Z
0,0.0,0.3091447749131355,-0.04490888268629467,-0.02382766473103559,-0.4686921954499712,0.1506975092881355,,0.158447265625,-0.918182373046875,-0.4871673583984375
1,0.05,0.006595889079833689,-0.03444814695568865,-0.017708641155565474,-0.457193880985372,-0.1678731050607913,,0.174468994140625,-0.91119384765625,-0.468414306640625
2,0.1,0.0028837753303123104,-0.018504410198776466,-0.010029888044822244,-0.4765279880884088,-0.1357423233025002,,0.1386260986328125,-0.8895263671875,-0.482147216796875
3,0.15,-0.0115403585196589,0.04624414831022361,0.02418701988680505,-0.4634640219322356,-0.2159165792227839,,0.204376220703125,-0.8189697265625,-0.4283447265625
4,0.2,-0.024722196105344707,0.0838609952057211,0.039675437892563115,-0.4276620361042121,-0.2574950232537822,,0.2327728271484375,-0.7895965576171875,-0.373565673828125
5,0.249,-0.003435128200810711,0.020584026133008804,0.013345955598185077,-0.5440233890709271,-0.1386737756617482,,0.1352386474609375,-0.8103790283203125,-0.525421142578125
6,0.299,0.0057256337030286986,-0.03087400633958315,-0.02273170536299407,-0.5929021125554472,-0.1477014903204088,,0.1534271240234375,-0.8273162841796875,-0.609130859375
7,0.349,0.007411410038252991,-0.041811960848336494,-0.028724422720546428,-0.5662436624244237,-0.144566129024247,,0.1519775390625,-0.857391357421875,-0.589019775390625
8,0.399,0.0016879402790266063,-0.008025421108953212,-0.005375271896289613,-0.5564901044953072,-0.1721401847209734,,0.173828125,-0.82647705078125,-0.553558349609375
9,0.449,-0.006005436659212909,0.02673054943817521,0.017015064864853824,-0.5369814046195479,-0.1862117354873379,,0.180206298828125,-0.8021087646484375,-0.5105743408203125
10,0.499,-0.005452030125243507,0.027092657499201755,0.017426500298230785,-0.5409726579164308,-0.166874759617431,,0.1614227294921875,-0.802154541015625,-0.515960693359375
11,0.549,0.0035131231588222955,-0.0248164494459141,-0.01730134234468006,-0.5719045442146986,-0.1153528436380527,,0.118865966796875,-0.83966064453125,-0.58538818359375
12,0.598,0.005048000885608389,-0.02758997096934579,-0.02008870271785912,-0.5886175498783578,-0.1463191866143916,,0.1513671875,-0.827301025390625,-0.6023712158203125
13,0.648,-0.006319920959534792,0.025595388913696504,0.015929770079711303,-0.5283915620616583,-0.2051724600220348,,0.1988525390625,-0.8053436279296875,-0.501220703125
14,0.698,-0.011795150192194709,0.05718825275183148,0.02880826483557214,-0.4498868851721359,-0.1811524499968822,,0.1693572998046875,-0.8211212158203125,-0.41363525390625
15,0.748,-0.0023293482213788963,0.014256430087844718,0.008793985137777294,-0.5249976898835127,-0.1377358423620039,,0.135406494140625,-0.8287353515625,-0.511199951171875
16,0.798,-0.07533676793235519,-0.001983285677427893,-0.23668470318086665,-0.5270719138781025,-0.1423075931276677,,0.0669708251953125,-0.8431549072265625,-0.758392333984375
17,0.848,-0.0007136573075043062,0.0028427713712325664,0.002035398728171378,-0.5821559328594034,-0.1999934424637543,,0.19927978515625,-0.7938079833984375,-0.568359375
18,0.897,-0.0031275783299557214,0.011819984625450974,0.008774005431945953,-0.5960370346105522,-0.2078242336033932,,0.2046966552734375,-0.7736053466796875,-0.574249267578125
19,0.947,-0.0037480793293103998,0.03422892581087389,0.021554202107532228,-0.5328602935904574,-0.0922643146808729,,0.0885162353515625,-0.8083648681640625,-0.509033203125
20,0.997,-0.0009071350815638007,0.007094993169610597,0.004744130214679121,-0.5558462008361534,-0.1056892395737513,,0.1047821044921875,-0.8195343017578125,-0.5479888916015625
21,1.047,0.0027221274713615934,-0.01853568069329381,-0.013837423429632456,-0.5982184083537944,-0.1168762612005134,,0.119598388671875,-0.8143768310546875,-0.6079559326171875
22,1.097,-0.003343535384655899,0.018037758078776722,0.012526904578530118,-0.5704168125212723,-0.1505145558924684,,0.1471710205078125,-0.7939605712890625,-0.5513916015625
23,1.147,-0.0009353075787062043,0.007056070409945603,0.0049603083967793005,-0.5750998551576688,-0.1078078661724562,,0.10687255859375,-0.8062591552734375,-0.5667877197265625
24,1.196,-0.0009936560109334996,0.007059790248500786,0.004813637786743374,-0.5633483638127071,-0.115510867924996,,0.1145172119140625,-0.813629150390625,-0.5547637939453125
25,1.246,-0.00022168251249679582,0.00198140361736876,0.0013045485615401642,-0.5499087665272353,-0.0930408963796843,,0.0928192138671875,-0.829620361328125,-0.5462188720703125
26,1.296,0.0006171354873217988,-0.004918763970505058,-0.003396204774565592,-0.5681811290708226,-0.1027001252548657,,0.1033172607421875,-0.8234710693359375,-0.568572998046875
27,1.346,-0.00039417173689720864,0.0018828661527118262,0.0013850394309185,-0.5925512270485046,-0.1662877264243972,,0.1658935546875,-0.7924346923828125,-0.582916259765625
28,1.396,0.0028446688752739036,-0.02831250625862225,-0.02279170172068512,-0.6270692926651019,-0.0780269131559761,,0.08087158203125,-0.804901123046875,-0.64794921875
29,1.446,-0.0001982618699385985,0.006411645222316298,0.003721941924103467,-0.5020397978918616,-0.0267332960496261,,0.0265350341796875,-0.858123779296875,-0.498138427734375
30,1.496,-0.00018622893385129846,-0.009559354376691198,-0.006008396270201555,-0.5321499115617899,0.0164916275114612,,-0.0166778564453125,-0.8560943603515625,-0.5380859375
31,1.545,-0.0011336568255828974,-0.028862114551690077,-0.012158179664799207,-0.3882118703658603,0.0361740824322296,,-0.0373077392578125,-0.9498291015625,-0.400115966796875
32,1.595,-0.008883736680152396,0.09511167157323863,0.040691933764590904,-0.3933458443745914,-0.0855591517192149,,0.0766754150390625,-0.8209075927734375,-0.3512115478515625
33,1.645,-0.07675102501674408,0.16379876928270742,0.09083108187652589,-0.484956405381626,-0.3791802242354941,,0.30242919921875,-0.6454315185546875,-0.35791015625
34,1.695,-0.728180803337517,-0.1938213282423531,-0.09256727516788604,-0.4874248877454604,-0.3710488453297045,,-0.3571319580078125,-1.0046539306640625,-0.545196533203125
35,1.745,-0.571237971452399,-0.08555053244162236,-0.39078392693349245,-0.4808893847972015,-0.3595833083664615,,-0.2116546630859375,-0.9036865234375,-0.839508056640625
36,1.795,-0.5729925694222568,-0.1341396187181778,-0.24381069234086744,-0.449733194889742,-0.3734228672738193,,-0.1995697021484375,-0.9626922607421876,-0.6610107421875
37,1.844,-0.0063140986052293985,0.09726913268816595,0.03123121244526539,-0.3057087085493412,-0.0616882441130419,,0.0553741455078125,-0.8530426025390625,-0.273895263671875
38,1.894,0.0028730386760102006,0.09257280826494352,0.02545200967043354,-0.2651031013924732,0.0299116128947602,,-0.02703857421875,-0.8712158203125,-0.239532470703125
39,1.944,0.002340854724522501,0.1177660457447447,0.023896312165561817,-0.198860790792951,0.01947647484171,,-0.0171356201171875,-0.8620758056640625,-0.1749267578125
40,1.994,-0.2823482608036805,0.0023565266644766103,-0.4495828630233304,-0.2155187409461818,0.003738775329132,,-0.2860870361328125,-0.9741363525390624,-0.66510009765625
41,2.044,-0.1435298691347132,0.024138145731402827,-0.41938069033524983,-0.201321507847054,-0.0224971542909632,,-0.12103271484375,-0.95513916015625,-0.6206512451171875
42,2.094,0.0003431472944787975,-0.008611637506958592,-0.004622143811116142,-0.4729182082084335,-0.0350877609086462,,0.035430908203125,-0.8891754150390625,-0.4772491455078125
43,2.143,-0.017842357964588496,0.1207481180061446,0.04148613570022197,-0.3249324583576314,-0.138402050347401,,0.1205596923828125,-0.815887451171875,-0.2803192138671875
44,2.193,-0.0118190979582702,0.130661918701095,0.03310302506938548,-0.2455895999989749,-0.0873501038176452,,0.075531005859375,-0.8350067138671875,-0.2115478515625
45,2.243,0.0007359286289555997,0.10485036061482911,0.04254173669658562,-0.3759694881098834,0.0065037508945806,,-0.005767822265625,-0.8217620849609375,-0.3334197998046875
46,2.293,-0.0035870070889510997,-0.031800461756319676,-0.016235092208966295,-0.4547007038447548,0.0999591354891739,,-0.103546142578125,-0.9179840087890624,-0.468658447265625
47,2.343,-0.0489286183682895,-0.0943831338698492,-0.21080165850880883,-0.4672297963710893,0.1035066843660855,,-0.152435302734375,-0.9737701416015624,-0.6755218505859375
48,2.393,0.0963012375032751,-0.006843559714208469,-0.2700647969752456,-0.3892539322762386,0.0858184494173376,,0.0104827880859375,-0.9245758056640624,-0.6578826904296875
49,2.443,-0.014958018363701697,0.10772745687744012,0.04504507367590871,-0.3857726710213495,-0.1270643416058892,,0.1121063232421875,-0.8073883056640625,-0.3376007080078125
50,2.492,1.111596231620016e-05,-0.003745680266013962,-0.00017717133783996114,-0.0472473526585791,-0.0029643479048713,,0.0029754638671875,-1.00262451171875,-0.04742431640625
51,2.558,-0.19149160299979429,-1.0110399688546101,-0.2167437615124955,0.1503051049175963,-0.0585112563201068,,-0.1329803466796875,-1.99798583984375,-0.0666961669921875
52,2.608,1.5261136614512307,-0.33348303137862023,0.11548687817166453,0.4338364277197145,-0.1115511334706442,,1.637664794921875,-1.228851318359375,0.5466156005859375
53,2.698,2.584696300687243,1.3416299173895654,0.020721158368858794,0.623184041127471,0.0242104608434932,,2.56048583984375,0.559783935546875,0.6437225341796875
54,2.847,-2.4681857661270348,-0.3892558964739926,0.5883638954501079,0.6109675600749599,-0.148239477064535,Straight,-2.3199462890625,-1.1721649169921875,1.1925811767578125
55,2.897,-2.4627600905327816,2.129783630228874,0.1986999772274991,0.390897714126725,-0.3695899245171565,,-2.093170166015625,1.2745208740234375,0.561920166015625
56,2.947,-0.9038368221275316,1.6275086598688255,0.9511937840321859,0.0449486437902449,-0.5186592098228441,,-0.3851776123046875,0.7733917236328125,0.9896240234375
57,2.997,0.009353358032564207,0.3931292446506105,1.0899414980943227,-0.2496407323253415,-0.6298525745846233,,0.6392059326171875,-0.3589935302734375,0.8960418701171875
58,3.047,-0.02157740384607676,-0.16165551468801476,0.7211154445981488,-0.406590910630589,-0.7156997182992018,,0.694122314453125,-0.7997283935546875,0.4371490478515625
59,3.097,0.23541950396379718,-0.3006660956001752,0.6930736376157474,-0.5429868150326236,-0.7765128690830778,,1.011932373046875,-0.8297882080078125,0.3509368896484375
60,3.147,-0.07673865834077875,-0.49509291133421945,0.2563556317684357,-0.6453230332596581,-0.7926657823642163,,0.7159271240234375,-0.9608154296875,-0.1370697021484375
61,3.196,-0.20894130898777874,-0.6162588633217627,0.09927349056924728,-0.6697532114959438,-0.7953976078159037,,0.586456298828125,-1.0663299560546875,-0.3066558837890625
62,3.246,-0.36028388050311966,-0.7711351793629697,0.05267115971188674,-0.6816563673427404,-0.7922754576515572,,0.4319915771484375,-1.2175750732421875,-0.363250732421875
63,3.296,-0.6474871271509112,-0.8754675148159403,-0.37108083389371316,-0.6903184432096524,-0.8035845392602862,,0.156097412109375,-1.30609130859375,-0.781951904296875
64,3.346,-0.011383850243186,0.026214370539819676,0.013701774561117874,-0.4632225625529209,-0.3591774293447485,,0.3477935791015625,-0.8008880615234375,-0.418609619140625
65,3.396,-0.27615757186611334,0.2632007508401941,-0.018756271485118464,0.0710819669747756,-0.7230112095614258,,0.4468536376953125,-0.4258880615234375,0.0303497314453125
66,3.446,-0.22968498373987767,0.5236981148711904,0.05797623178296529,0.1746778223980083,-0.7064305892086277,,0.47674560546875,-0.1732025146484375,0.181610107421875
67,3.495,-0.037274163739356436,0.5692569322763985,0.435343324401243,0.2521929846103357,-0.6560790953799814,,0.618804931640625,-0.161041259765625,0.62567138671875
68,3.545,-0.0021807975526176027,0.02615267292931822,-0.017500552465890218,0.5561390106437115,-0.0691363639588676,,0.06695556640625,-0.802947998046875,0.5373077392578125
69,3.595,-1.2411357008181898,-0.983122822924258,-2.275833077244122,0.3833880945933599,-0.0117198072635024,,-1.2294158935546875,-1.906646728515625,-1.8924713134765625
70,3.665,-0.3316911508598848,-1.0743499499114866,-1.4194373556049462,0.5125036136449737,-0.0703386117973848,,-0.2613525390625,-1.930908203125,-0.908203125
71,3.715,0.9436558558184136,-0.7712019063279263,-1.2821294832765424,0.652703275535144,-0.1478205846112739,,1.0914764404296875,-1.5204925537109375,-0.6365966796875
72,3.765,1.57890896367479,-0.15866126714093476,-0.5832131694108258,0.9281833238403608,-0.1985415978486475,,1.7774505615234375,-0.52337646484375,0.3264923095703125
73,4.024,-2.435927728991981,2.3652210591550493,-0.05643083293343665,0.8989184865311257,-0.4523309272341683,,-1.9835968017578125,1.9744873046875,0.745269775390625
74,4.074,-0.5092583547432443,0.6518409563235695,-0.4692857572071274,0.6567541913704774,-0.6141625295479318,,0.1049041748046875,0.0567169189453125,0.04901123046875
75,4.123,0.12001237628446859,0.04445187229668135,0.2062794388622507,0.6176810605819719,-0.7071970963717814,Straight,0.82720947265625,-0.511566162109375,0.6429901123046875
76,4.173,0.47978469695189097,0.18688433855121334,-0.20335512033279235,0.4571480696158966,-0.7322972122277965,,1.2120819091796875,-0.4187774658203125,0.1079559326171875
77,4.223,0.8360896150728646,0.050225487204733965,0.1738418063660234,0.3350978097604083,-0.7322545011380729,,1.5683441162109375,-0.5914306640625,0.4020538330078125
78,4.273,0.23021714512432334,-0.0590655143525215,-0.47172550667094415,0.2126094435257593,-0.6779249447194267,,0.90814208984375,-0.7773895263671875,-0.3154296875
79,4.323,-0.3388826946240687,-0.5123371178828078,0.3734409064378305,0.2617046455687427,-0.5872500041943812,,0.2483673095703125,-1.2935333251953125,0.58526611328125
80,4.373,-1.1888425074582938,-1.1757574329184624,-0.16908463638106253,0.2543927894889634,-0.5318753443723563,,-0.6569671630859375,-1.994720458984375,0.0463409423828125
81,4.422,-0.7041133796212404,-1.223942967348584,-0.5529541982373853,0.1940535257977143,-0.5440791999337404,,-0.1600341796875,-2.047027587890625,-0.39013671875
82,4.472,-0.7480294694369254,-0.9736904375805542,-0.462069491880685,0.2531768714264272,-0.5791604508822379,,-0.1688690185546875,-1.7623443603515625,-0.25567626953125
83,4.522,0.04626828002372474,-0.33554990800570117,0.1911802297433493,0.4600721336575705,-0.6486474914606503,,0.694915771484375,-1.0113067626953125,0.5413360595703125
84,4.831,-2.9931327316582412,2.1327399130271463,0.15424905767558544,0.5019907601365066,-0.7857505295098038,,-2.2073822021484375,1.5977783203125,0.464752197265625
85,4.881,-1.2312627777226326,0.9450063606692496,0.5811092889573533,0.1597701994044393,-0.8819433197148201,Straight,-0.3493194580078125,0.479705810546875,0.6564178466796875
86,4.931,-0.09153424425447043,0.13206221431477183,0.8030460378737851,-0.227325772932852,-0.9488340489419704,,0.8572998046875,-0.175445556640625,0.73126220703125
87,4.981,-0.055371543345798635,-0.5817833326574201,0.5991135125511431,-0.5531591119631252,-0.9831364359239236,,0.927764892578125,-0.734130859375,0.497955322265625
88,5.031,-0.0030330123908980378,-0.7931553404033592,0.15257660233346526,-0.6832319741562578,-0.9945643844612104,,0.9915313720703124,-0.8691864013671875,0.0814361572265625
89,5.08,-0.27090923516910304,-0.947190549956785,-0.11799760432801384,-0.7369527731192465,-0.996891901184728,,0.725982666015625,-1.0004425048828125,-0.176055908203125
90,5.13,-0.5794105767116485,-1.0694672984794726,-0.0706191603991248,-0.7558252014866423,-0.993030571828836,,0.4136199951171875,-1.146636962890625,-0.159698486328125
91,5.18,-0.4369262639221525,-0.961767672693492,-0.13387940156850192,-0.7807965736720102,-0.99056090747684,,0.5536346435546875,-1.0474090576171875,-0.24090576171875
92,5.23,-1.1174261480789294,-1.8945012424447336,-1.0504848788303807,-0.7793691263186731,-0.9878790289383044,,-0.129547119140625,-1.99176025390625,-1.1714630126953125
93,5.28,-0.9445693647540542,-2.0257695380988565,-1.0656394711253518,-0.7008288115236375,-0.9881179487384292,,0.043548583984375,-2.135406494140625,-1.1733551025390625
94,5.33,0.8104564881447431,-0.13813058305577544,0.16277070886124245,-0.5099780487595771,-0.9987933897849444,,1.8092498779296875,-0.1803741455078125,0.137725830078125
95,5.409,1.329410914994814,0.7913192317598025,0.3244340464557364,-0.1878927470871578,-0.9878956035598736,,2.3173065185546875,0.6389617919921875,0.2952880859375
96,5.459,-0.8786315995868866,2.336688931925237,0.0787679442299703,0.2097188536002487,-0.9415283281025116,,0.062896728515625,2.0072479248046875,0.1494293212890625
97,5.599,-2.613661343786895,2.414076437786314,0.08985774217124244,-0.1421978231316976,-0.9914231846072074,,-1.6222381591796875,2.2847137451171875,0.0712738037109375
98,5.649,-1.2975248992466657,0.5384060555116892,0.37139242821328505,-0.3730102113769472,-0.9997801482701032,,-0.2977447509765625,0.518951416015625,0.3635711669921875
99,5.698,-0.3616338460680174,-0.2248463740800079,0.8234520111858834,-0.6025141531382914,-0.9877935140367674,Straight,0.62615966796875,-0.3491668701171875,0.7295989990234375
100,5.748,0.20619243053662417,-0.3720850557028379,0.8939540079579291,-0.7651145405720554,-0.9570155772758758,,1.1632080078125,-0.558837890625,0.6720428466796875
101,5.798,0.8223378828934533,-0.4615570089500117,0.716321231189907,-0.867142232933086,-0.9367716141768592,,1.7591094970703125,-0.6358489990234375,0.412872314453125
102,5.848,0.21691519976270024,-0.41791324146332576,0.0875221764237138,-0.8944626060454729,-0.9512976908622998,,1.168212890625,-0.555755615234375,-0.1882171630859375
103,5.898,-0.05444709449112761,0.04692235917288534,-0.01568925489542694,0.3171093049968166,-0.7400855222255026,,0.685638427734375,-0.59088134765625,0.19757080078125
104,5.948,0.10920436905204522,0.05754264070127124,0.3197422585834209,0.3466466125606259,-0.6799344248932673,,0.7891387939453125,-0.6302642822265625,0.5739288330078125
105,5.997,-0.8111435865812956,-1.191853002535928,-0.41942696301625676,0.3457147375125857,-0.5917221998625456,,-0.21942138671875,-1.9482879638671875,-0.1407318115234375
106,6.077,-0.1930279009982636,-1.3397772149726284,0.4595250570007707,0.4820589565137326,-0.6224254840060761,,0.4293975830078125,-2.0255126953125,0.836822509765625
107,6.127,1.2406517919451008,0.5144351232609331,-0.46448837215607336,0.5811660331098435,-0.7306616846173993,,1.9713134765625,-0.041168212890625,-0.0677032470703125
108,6.346,-2.539909634495621,0.9614174085139293,3.662264433342371,0.5968729061914909,-0.8464587067612463,,-1.693450927734375,0.534210205078125,3.980072021484375
109,6.396,-2.936125698279628,1.790738821521733,-0.5142213490484884,0.3628118088848355,-0.909697475623378,,-2.02642822265625,1.4037628173828125,-0.363555908203125
110,6.446,-1.112171226335724,0.8736979090341375,0.6731209054707412,0.1868815380610917,-0.9532661970388489,Straight,-0.158905029296875,0.5768890380859375,0.729583740234375
111,6.496,-0.5953269983140728,0.11393052660697492,0.8671654189943699,-0.0866741449599805,-0.9763694787828228,,0.38104248046875,-0.1013641357421875,0.8484344482421875
112,6.546,0.3895695369837725,-0.29577518234983113,0.9578606771417653,-0.3374332939994296,-0.996218426883415,,1.3857879638671875,-0.3775634765625,0.9285430908203124
113,6.596,0.5903547966519046,-0.6632821920591087,0.7250863447442577,-0.5200847159926563,-0.9987870490512204,,1.589141845703125,-0.7053375244140625,0.6994781494140625
114,6.645,0.03900614583112161,-0.023213234328177013,0.006113212644562216,0.2546673223392536,-0.8516493717470034,,0.890655517578125,-0.5300445556640625,0.13958740234375
115,6.695,-0.03437483669590724,0.05698604541976815,0.00894628849974935,-0.1550912966546767,-0.5119138991959072,,0.4775390625,-0.791656494140625,-0.1242828369140625
116,6.745,0.02013246163146959,-0.07216252276559221,0.020966220231777244,0.2790042281937111,-0.2587829436419679,,0.2789154052734375,-0.9997406005859376,0.29046630859375
117,6.795,-0.2128143799811122,-0.4464427514151691,-0.04700865625504541,0.2685633392906845,-0.2116699708014247,,-0.0011444091796875,-1.38787841796875,0.2154693603515625
118,6.845,-0.5376461193770354,-0.5926741039542591,-0.1454653440875315,0.2408930506941864,-0.1834591076582855,,-0.35418701171875,-1.5467529296875,0.091339111328125
119,6.895,-0.6421667144702122,-0.8511295917740436,-0.25356478899541846,0.1910410999222597,-0.2372442291186497,,-0.4049224853515625,-1.8046875,-0.0679779052734375
120,6.944,0.1255700363913242,-0.39246678902230236,-0.11755202129674364,0.1547165238687991,-0.3371374831399258,,0.46270751953125,-1.3225860595703125,0.028106689453125
121,7.194,-1.5920896488676723,1.2260142147275017,2.24016048314063,0.2347393939534616,-0.5583219486723598,,-1.0337677001953125,0.4195709228515625,2.434906005859375
122,7.243,-1.0172994746611335,0.5862412699341385,-0.5889490521995614,0.1741246005556626,-0.6491354121611334,,-0.3681640625,-0.162811279296875,-0.4564971923828125
123,7.293,0.6269442700671966,-0.2985605279442711,0.5931392032360155,0.1487611358565623,-0.7048123217296784,Straight,1.331756591796875,-1.00006103515625,0.69866943359375
124,7.343,0.6598382074676686,-0.33223734537972305,0.17178203881348605,0.0201749039430492,-0.7246832769073314,,1.384521484375,-1.02117919921875,0.1856842041015625
125,7.393,0.4402674936084412,-0.5109968045446598,0.06875637754270623,-0.0395654918298938,-0.7164250112743713,,1.1566925048828125,-1.2081146240234375,0.0411529541015625
126,7.443,-0.38217972409298817,-0.5304645473547386,0.004665921846332858,-0.0052887826713741,-0.7021717895226757,,0.3199920654296875,-1.242462158203125,0.0009002685546875
127,7.493,-0.5579089591704534,-0.42724117966211705,-0.13417962797701632,0.0265581304418915,-0.7083301017485784,,0.150421142578125,-1.13287353515625,-0.1154327392578125
128,7.543,0.010379189935035588,-0.05057696264617817,-0.010671109428128156,-0.2064426062046707,-0.1968656831118394,,0.207244873046875,-1.0098876953125,-0.21307373046875
129,7.592,-0.020327750908527398,0.07191036343700652,0.015141277659375063,-0.2060398483683714,-0.2666046063772774,,0.24627685546875,-0.8712158203125,-0.183441162109375
130,7.642,-0.023843989670070787,0.11863561926640853,-0.003951577977762237,0.0332900672611942,-0.1969396927950708,,0.173095703125,-0.861236572265625,0.0286865234375
131,7.692,-0.053306448695643105,0.17536373268052452,0.041783212403715186,-0.2317777102354911,-0.2835615756487681,,0.230255126953125,-0.757476806640625,-0.18048095703125
132,7.742,-0.01435170155942081,0.1000706412811796,-0.00056631131347712,0.0056590248470312,-0.1419609544891083,,0.1276092529296875,-0.8897857666015625,0.005035400390625
133,7.792,-0.2938324834378864,-0.1812685002006842,-0.3328479541477822,0.0025747655323668,-0.1198517705472614,,-0.173980712890625,-1.1740570068359375,-0.330291748046875
134,7.842,-0.2467201324368671,-0.5339403511410039,-0.8660859429678626,0.0895250525630876,-0.1357429595853046,,-0.1109771728515625,-1.5207061767578125,-0.7773895263671875
135,7.891,0.234831379263012,-0.7899787868637097,-0.643967394977788,0.3513595113505894,-0.152589275033863,,0.387420654296875,-1.7152557373046875,-0.296722412109375
136,7.941,1.8338222741061914,0.058884158869264014,0.03523775693884379,0.6880284658801686,-0.2088107825344337,,2.042633056640625,-0.6508026123046875,0.708099365234375
137,8.2,-3.1804622538489093,2.8845281692502294,-0.9234586338602149,0.3773637032080875,-0.3994869120520343,,-2.780975341796875,2.0355682373046875,-0.5775146484375
138,8.25,-0.5487521175517797,1.130980102565038,0.28257181335525994,0.2355231107301943,-0.5510409359111547,,0.002288818359375,0.319976806640625,0.4791107177734375
139,8.3,0.4191785206608277,0.36075892973299695,0.15059368155692582,0.0862120150384386,-0.5955614695735473,Straight,1.014739990234375,-0.4395599365234375,0.2198486328125
140,8.35,1.0126132214930452,0.19429799498833422,0.7285441568381158,-0.016440941499287,-0.6287289415928922,,1.6413421630859375,-0.583221435546875,0.71575927734375
141,8.4,0.6760582699125723,0.04579924185716555,0.27439104426970595,-0.1449101976659263,-0.6112036929780527,,1.287261962890625,-0.7373199462890625,0.159698486328125
142,8.45,0.0472496059717028,-0.05898547665492726,0.029810900120604666,0.4510606658718525,-0.5815803500829847,,0.6288299560546875,-0.7850189208984375,0.3967437744140625
143,8.5,-0.2542969857833792,-0.24373668429925155,0.35089946886562895,0.4630510063310438,-0.5335328256271292,,0.27923583984375,-0.993377685546875,0.7425384521484375
144,8.549,-0.03459727015916869,0.06106896301356601,-0.022942377124327062,0.3516813140336863,-0.4685267135185437,,0.433929443359375,-0.7659454345703125,0.287750244140625
145,8.599,-0.08339572578253884,0.07877212006524947,-0.060901770086011164,0.611651253610547,-0.6420962873059763,,0.5587005615234375,-0.5277252197265625,0.4080047607421875
146,8.649,-0.0849065672612917,0.13545655773333787,-0.09240889357485582,0.5635539114570054,-0.4598150145269167,,0.374908447265625,-0.598114013671875,0.4080352783203125
147,8.699,-0.24830108456693661,-0.2576881940305197,0.1553972584009345,0.4872928810196805,-0.4064126568325616,,0.158111572265625,-1.0555572509765625,0.6006317138671875
148,8.799,-0.647696604156343,-1.2667287995497816,-0.9204345231181867,0.4292910036358546,-0.4891425270079055,,-0.1585540771484375,-2.054473876953125,-0.5460052490234375
149,8.848,0.7013371523161317,0.08665651086639181,-0.7613830110760985,0.5268766464720933,-0.6037470761994933,,1.305084228515625,-0.5908966064453125,-0.34136962890625
150,8.972,1.7921783943927925,1.3689055381243347,1.2051069129534402,0.7129040642769529,-0.4309356192790824,,2.223114013671875,0.7360992431640625,1.848419189453125
151,9.167,-2.8827248565872,2.8312015428369106,-1.1200755594662846,0.5329896814384307,-0.6697274200637626,,-2.2129974365234375,2.2028656005859375,-0.724273681640625
152,9.217,-0.7101444122885133,0.7873330485728542,0.6942388330115442,0.3611636766220627,-0.8117069122885133,Straight,0.1015625,0.2426910400390625,0.905181884765625
153,9.267,-0.2460022360129802,0.07589097345108892,0.6179993304223359,0.2888314613818102,-0.8631897360129802,,0.6171875,-0.407470703125,0.763824462890625
154,9.317,0.6316142967859002,-0.010468185493923032,0.7356559647516646,0.1252067383248755,-0.8941577979406623,,1.5257720947265625,-0.4546966552734375,0.791717529296875
155,9.367,0.7344407949495736,-0.2995845999302992,0.06185176321759791,0.0731692702150843,-0.9022779550504264,,1.63671875,-0.729583740234375,0.0933990478515625
156,9.417,0.22622264459248953,0.05611849206050734,0.06009021353245592,0.0854486550314806,-0.870014538024698,,1.0962371826171875,-0.4351043701171875,0.1022186279296875
157,9.466,-0.010414897764788544,0.5033219770920718,0.305671869054228,0.1480602711222479,-0.8228843801866635,,0.812469482421875,-0.058624267578125,0.389801025390625
158,9.516,-0.1275167906376382,0.38051661252657853,0.6241186060176374,0.1581398678485308,-0.7707052672001382,,0.6431884765625,-0.2486572265625,0.724884033203125
159,9.566,-0.7895788469806252,-0.801481216954545,0.6512231453374417,0.1141505749588176,-0.6885046282306252,,-0.10107421875,-1.52197265625,0.7340087890625
160,9.656,-0.4332045536641257,-1.6577327334991738,0.6581366739367968,0.0543469801271975,-0.7562483769063132,,0.3230438232421875,-2.3110504150390625,0.693695068359375
161,9.706,0.8427036005761432,0.1997576744645379,0.21942140922354303,0.0649462478958147,-0.8704769414160443,,1.7131805419921875,-0.291412353515625,0.2513885498046875
162,9.995,-3.107888110562865,1.723203080283116,0.025748558566859793,-0.1357753324008572,-0.95685661642224,,-2.151031494140625,1.435333251953125,-0.013702392578125
163,10.045,-1.263267089215197,0.4665716008807236,0.2088604110552317,-0.2097665019362919,-0.9903636468323844,Straight,-0.2729034423828125,0.3311614990234375,0.1798095703125
164,10.094,0.018852591793986573,-0.2399482861203422,0.9831060482637721,-0.2643542854456749,-0.9976269003935134,,1.0164794921875,-0.3063507080078125,0.96490478515625
165,10.144,0.27666739786003003,-0.2615823504069317,0.9462513544227169,-0.3454810056087867,-0.99963875448372,,1.27630615234375,-0.28680419921875,0.9369659423828124
166,10.194,0.6360185535852572,-0.5601036225835723,1.0136072413970552,-0.4286377937145428,-0.9987470714147428,,1.634765625,-0.605316162109375,0.992156982421875
167,10.244,-0.04827328890690685,-0.6832348472639358,0.29226287382110544,-0.4563699882054597,-0.9942571756256569,,0.94598388671875,-0.7784576416015625,0.2434234619140625
168,10.294,-0.2584034257702996,-0.49644196319735723,0.638035239727255,-0.4552298696318659,-0.9837452226452996,,0.725341796875,-0.6563262939453125,0.5562896728515625
169,10.344,-0.1489701331871185,0.12496546717592405,-0.0743366420209634,0.5112422988130527,-0.7156205238121185,,0.566650390625,-0.475341796875,0.2827606201171875
170,10.393,-0.04544458811954455,0.40440648489501385,-0.14041936757069978,0.4963571921910961,-0.683704475814857,,0.6382598876953125,-0.2291107177734375,0.2218017578125
171,10.443,0.010609838600060317,-0.014173713101002239,0.019301237052416154,0.806017037684153,-0.4050853518296272,,0.4156951904296875,-0.555328369140625,0.7562255859375
172,10.493,0.04859118181441591,-0.1574139355413411,0.43162333643585293,0.6873131777123165,-0.3345570115449591,,0.383148193359375,-0.8419189453125,1.0793304443359375
173,10.543,-0.4641115601757147,-0.27968779513570496,-0.3328113486410881,0.4298998761502069,-0.2434694703319647,,-0.22064208984375,-1.1553955078125,0.0841522216796875
174,10.593,-0.5497398879249245,-0.3511265621535712,-0.85857167727829,0.2514408801269656,-0.2118645217139869,,-0.3378753662109375,-1.297027587890625,-0.6128387451171875
175,10.643,-0.6320497949011528,-0.2826597864574407,-0.7592798089879935,0.2450176375589942,-0.1965792138464652,,-0.4354705810546875,-1.2332611083984375,-0.51904296875
176,10.693,-0.006229691808830803,-0.054596069879431774,0.008779481742206413,0.1587682366509769,0.1119496294802317,,-0.1181793212890625,-1.03570556640625,0.1665496826171875
177,10.742,0.0005217916874021983,0.02363114994886728,0.003491559551779655,-0.1461655779397914,0.0218383200077147,,-0.0213165283203125,-0.96539306640625,-0.14263916015625
178,10.792,0.0016133416352846972,0.04491045539978722,0.014039087818818574,-0.2983634840035462,0.0342671502290347,,-0.03265380859375,-0.9089813232421876,-0.284149169921875
179,10.842,0.0009761599919657915,0.005644613460035974,0.00030531411004131037,-0.0540105120851723,0.1701656131169658,,-0.169189453125,-0.97833251953125,-0.05291748046875
180,10.892,0.0028094302337459964,0.02015412555919971,-0.0007374040746735422,0.0365637787777162,0.137971783749371,,-0.135162353515625,-0.9696197509765624,0.0354766845703125
181,10.942,-0.005144306621135301,0.16468403466490156,0.0010445139833434487,-0.0063424057886953,-0.0312215771289478,,0.0260772705078125,-0.834808349609375,-0.0052947998046875
182,10.992,-0.092369520556777,0.26779719125460555,-0.01919751678303938,0.071503282192453,-0.3253254531739645,,0.2329559326171875,-0.675384521484375,0.0484161376953125
183,11.041,0.0020283341582928993,-0.021077274848750216,-0.0036791246365999175,-0.1719541050994044,-0.0943766951385821,,0.096405029296875,-1.0017852783203125,-0.17486572265625
184,11.131,-0.1303815440607895,-1.1692433740547312,-0.18012055376530367,-0.0809665323350053,-0.2847089366389145,,0.154327392578125,-2.1247100830078125,-0.2577362060546875
185,11.181,1.0446267829754567,0.8125808416770514,-0.08703127863247442,0.1992157062449822,-0.4637960685870433,,1.5084228515625,-0.05560302734375,0.0894622802734375
186,11.414,-3.9170137659958484,-1.3981856545857154,-0.582533346702796,0.3776669330799106,-0.5689760462692858,,-3.3480377197265625,-2.159637451171875,-0.2719573974609375
187,11.464,-1.9783169288278124,1.4860843673332789,1.7775000078067664,0.194623231205273,-0.6960598487496875,,-1.282257080078125,0.781829833984375,1.917236328125
188,11.514,-2.6654118299116782,1.7640178073953177,0.6488823593247227,-0.0757355647622771,-0.8093479871382407,Straight,-1.8560638427734375,1.178375244140625,0.604400634765625
189,11.564,-1.370069071713882,0.5879882056882668,0.9245248675611898,-0.2788945616288772,-0.8780036420263819,,-0.4920654296875,0.128326416015625,0.7910308837890625
190,11.613,-0.9920654270358854,-0.41568114570053355,1.1537931553436327,-0.5361330850403051,-0.9314269993015104,,-0.060638427734375,-0.7228851318359375,0.95867919921875
191,11.663,-0.5205283169678351,-0.6217117735085637,0.8688896255942975,-0.7281143220481949,-0.9736075406006476,,0.4530792236328125,-0.7781524658203125,0.7027130126953125
192,11.713,-0.3201369954822616,-0.8658433439336586,0.7221590626595404,-0.884832809327569,-0.9934158040760116,,0.67327880859375,-0.919219970703125,0.62078857421875
193,11.763,-0.19416123335640156,-0.758609093558383,-0.1873598223966835,-0.9334031864219224,-0.9956749052314016,,0.801513671875,-0.7919464111328125,-0.274078369140625
194,11.813,-0.6876491124337867,-1.0628431130231273,-0.2706138125241358,-0.9255451116386724,-0.9940913731759742,,0.3064422607421875,-1.10394287109375,-0.3710784912109375
195,11.863,-0.9458069774584095,-1.293150454359266,-0.18920629611364373,-0.9286314460174696,-0.994863984294347,,0.0490570068359375,-1.3307037353515625,-0.283203125
196,11.912,-1.2176951209665705,-1.2529098966074284,-0.7558906847426744,-0.9168478490277084,-0.997526053583758,,-0.2201690673828125,-1.280975341796875,-0.820343017578125
197,11.962,-0.0034319310873802966,0.044301709231258646,0.011475978289623323,-0.2507645689827663,-0.0747820287436303,,0.07135009765625,-0.9210357666015624,-0.23858642578125
198,12.012,-0.024948356823406098,0.17472488174005907,0.028649577958214156,-0.1618088782596232,-0.1395266038937186,,0.1145782470703125,-0.8024444580078125,-0.1315765380859375
199,12.062,-0.05759037662862629,0.23031341032557195,0.03281122009023621,-0.1410392867752212,-0.2402991168630013,,0.182708740234375,-0.730682373046875,-0.104095458984375
200,12.112,-0.06262733436698947,0.2344557084858513,0.02109035065540324,-0.0895927659975543,-0.257100600968552,,0.1944732666015625,-0.7280426025390625,-0.06549072265625
201,12.162,-4.147391624950009e-05,-0.002418853505898322,-0.0006654921404813385,-0.2652704080198144,0.0165295710056255,,-0.016571044921875,-0.966461181640625,-0.265899658203125
202,12.211,-0.02022481811443,-0.20849846062157296,-0.0632388287140675,-0.2811379507792043,0.02103494751057,,-0.041259765625,-1.1679534912109375,-0.3443145751953125
203,12.261,-0.0210463536934987,-0.2962225922839842,-0.1380837608296967,-0.2812807629088599,0.0220292078299388,,-0.0430755615234375,-1.255615234375,-0.4192962646484375
204,12.311,-0.021977576567039102,-0.1810132896917349,-0.06592416708130494,-0.2536795495921388,0.0081280142532734,,-0.0301055908203125,-1.1482696533203125,-0.3195953369140625
205,12.361,-0.023020151793163912,0.11325987428502837,0.01783495959677525,-0.1555525793764312,-0.1968482767931639,,0.173828125,-0.8552398681640625,-0.134674072265625
206,12.411,-0.107023168588817,0.3279648935151336,0.0007554387510209436,-0.0023034073521146,-0.3102244625341295,,0.2032012939453125,-0.6226959228515625,-0.001434326171875
207,12.461,-0.09176235919038259,0.40479487039714046,-0.06695663579525035,0.1631914053737155,-0.2182577205185076,,0.126495361328125,-0.558013916015625,0.0923004150390625
208,12.511,0.013187850500711112,0.0803729663361552,-0.02237767629796178,0.2682208017087001,0.1561321864382111,,-0.1429443359375,-0.8711700439453125,0.2425537109375
209,12.56,-0.533575777685621,-0.406136815201106,-0.27058067964690186,0.2592326571404137,0.175042386376879,,-0.7086181640625,-1.3570404052734375,-0.015350341796875
210,12.61,-0.5326584225748822,-0.5321744281470971,-0.3092877564715528,0.2556393696054619,0.1655227297688678,,-0.69818115234375,-1.4856109619140625,-0.0571746826171875
211,12.66,-0.3937441250605986,-0.2865566884660008,-0.1063524489190647,0.2784617596899179,0.1233457186894014,,-0.51708984375,-1.2396697998046875,0.16998291015625
212,12.71,0.004631771176679289,0.015505348550650222,-0.004239516594907677,0.2637418497465689,0.2768790856298043,,-0.272247314453125,-0.911376953125,0.2491912841796875
213,12.76,0.046785424053745,0.29304081699129303,-0.07626138708313959,0.2518527783657921,0.1526966789365575,,-0.1059112548828125,-0.6633758544921875,0.172637939453125
214,12.81,-0.09469468488770522,0.29140706545395245,-0.17977949453554132,0.5250547305231538,-0.2665544260986427,,0.1718597412109375,-0.52886962890625,0.3262786865234375
215,12.859,-0.1518366857772132,0.4643242015100498,-0.11372395781412237,0.2378922304231578,-0.3027155920272132,,0.15087890625,-0.461395263671875,0.113006591796875
216,12.909,-0.0848380325079687,0.35867698633161504,-0.1124955372419037,0.2992660220163667,-0.2201529739142187,,0.13531494140625,-0.57208251953125,0.1794281005859375
217,13.008,0.4284243915286754,-1.7421363376967984,-0.5289460058765756,0.3128479459825188,-0.2453732158931996,,0.673797607421875,-2.66290283203125,-0.2256622314453125
218,13.059,1.3307802190330906,0.048809971097121596,-1.1123989925681732,0.6073465106839688,-0.3002012262794094,,1.6309814453125,-0.708984375,-0.5330657958984375
219,13.155,1.8141109106819622,1.4941616908748814,-0.3004529477482186,0.8186440281804573,-0.2455204369742878,,2.05963134765625,0.93743896484375,0.493133544921875
220,13.314,-1.7854589450960787,0.45048362350455684,1.7519117433476086,0.7924516537269488,-0.3674139011507663,,-1.4180450439453125,-0.116790771484375,2.4889373779296875
221,13.364,-2.156489699171183,1.6805159011100899,-0.17269451434649796,0.6603749071982518,-0.5003770282727453,Straight,-1.6561126708984375,1.0303497314453125,0.3990631103515625
222,13.414,-1.1926554830476255,0.9921269516353871,0.3556274600003781,0.5758551231918718,-0.6360758932038755,,-0.55657958984375,0.3612823486328125,0.7999725341796875
223,13.464,-0.3798215391148023,0.43705361449833524,0.8991750999521019,0.4060843124502754,-0.7325589658726148,,0.3527374267578125,-0.18499755859375,1.17559814453125
224,13.514,-0.318150540255443,0.17282544587078474,1.1651643682656332,0.1460521635425866,-0.786137600802318,,0.467987060546875,-0.4385986328125,1.25543212890625
225,13.563,-0.02918866584731561,0.0404630418221128,1.0330301334908951,-0.3310946504597463,-0.8556657166285656,,0.82647705078125,-0.4478759765625,0.8616790771484375
226,13.613,0.10471992142804398,-0.08748799911224708,-0.19436943681614205,-0.54420217927443,-0.8886730229078936,,0.9933929443359376,-0.4721832275390625,-0.44390869140625
227,13.663,-0.09487974457450932,-0.5800461606217928,0.2915359481825605,-0.534908938243294,-0.8912664633245093,,0.79638671875,-0.96319580078125,0.0489654541015625
228,13.713,-0.21203477438154594,-0.6593058296719672,0.30313227513381863,-0.5143591808460751,-0.8808122402018584,,0.6687774658203125,-1.065338134765625,0.059600830078125
229,13.763,-0.5074623001541154,-1.2395397361936369,-0.48550886391046894,-0.4969032710680315,-0.8608558548416154,,0.3533935546875,-1.681121826171875,-0.7383575439453125
230,13.823,-0.7476552829038282,-1.5526943191691858,-0.7205538216852336,-0.2923849831415923,-0.8730520114194532,,0.125396728515625,-2.019012451171875,-0.863128662109375
231,13.872,0.16235433880976047,-0.4354742739192792,0.13481986543102797,0.0081702068912035,-0.895369660213677,,1.0577239990234375,-0.8807830810546875,0.138458251953125
232,14.152,-2.5686573812966684,0.4262871501326453,2.3928520452583726,0.2097072871503396,-0.917000276804481,,-1.6516571044921875,0.0362701416015625,2.47650146484375
233,14.201,-2.453146825856448,1.3136263422031065,0.18888694647782162,-0.0028969217063798,-0.9753483639423856,Straight,-1.4777984619140625,1.09295654296875,0.1882476806640625
234,14.251,-1.66967919682451,0.2467289736339248,1.4608495735621592,-0.0684501326959229,-0.9964766821760724,,-0.6732025146484375,0.163055419921875,1.455108642578125
235,14.301,-1.1528481738919754,-0.11582632772423715,0.9721706443228911,-0.1831698153430595,-0.9995888965482254,,-0.15325927734375,-0.144012451171875,0.9669189453125
236,14.351,-0.39379498025601,-0.18438950479993643,0.6373990422102417,-0.3313869417404765,-0.99181744119351,,0.5980224609375,-0.304840087890625,0.5950927734375
237,14.401,-0.17803361419285935,-0.2094582180127372,0.6279859266322083,-0.481378447030893,-0.9788453817709843,,0.800811767578125,-0.3887939453125,0.5294952392578125
238,14.451,0.01921473351049785,-0.2224247041480456,0.18749342194648605,-0.6211455596954835,-0.9693411746926271,,0.988555908203125,-0.4149932861328125,0.0348663330078125
239,14.5,0.4638466632095857,-0.06733787886480205,0.5442875697663923,-0.6652708287588103,-0.9626822674544768,,1.4265289306640625,-0.2693939208984375,0.3642425537109375
240,14.55,-0.19643841185019406,-0.35224823922867,0.6170829829173723,-0.6784163155008047,-0.9785886804048816,,0.7821502685546875,-0.5034637451171875,0.477447509765625
241,14.6,-1.4698482882201103,-1.7751717654602996,0.7068541112398444,-0.6710360094601382,-0.9962154757201104,,-0.4736328125,-1.8396148681640625,0.648529052734375
242,14.67,-0.8571508015363983,-1.973056623165046,1.673520365415924,-0.6302089961666841,-0.9827153767317108,,0.1255645751953125,-2.116790771484375,1.556854248046875
243,14.72,0.47341765833043825,-0.5135844557800113,0.39110325773065424,-0.5317446081004151,-0.9566055350289367,,1.430023193359375,-0.7603607177734375,0.2361602783203125
244,14.853,1.402068839616161,1.0331057759639881,0.5200678802708503,-0.4365582318276926,-0.9832461017900892,,2.38531494140625,0.869110107421875,0.44049072265625
245,15.049,-1.8142837078046723,2.446999641780881,-0.35783852083847045,-0.6402292666583269,-0.9254592449140472,,-0.888824462890625,2.155975341796875,-0.6003875732421875
246,15.099,-2.119375022515944,0.9624813563634749,1.77480721894633,-0.670708273060455,-0.867452415094069,Straight,-1.251922607421875,0.5934600830078125,1.4411163330078125
247,15.148,-1.135292140530768,0.7074936226226254,2.0900275870030165,-0.7657546730063446,-0.8216324725620181,,-0.31365966796875,0.3408966064453125,1.653533935546875
248,15.198,-0.3380603311440954,0.43989111503288186,1.2014861215221193,-0.946866517076488,-0.7605456827065954,,0.4224853515625,0.2310638427734375,0.586700439453125
249,15.248,0.3221874921058947,-0.6405144541530429,0.9687892496954165,-0.9999966406194642,-0.7063617022300428,,1.0285491943359375,-0.6423492431640625,0.2609405517578125
250,15.298,0.3409258930222837,-0.7964646653624446,0.6887733987577997,-0.9663238983290838,-0.6746685893995913,,1.015594482421875,-0.9864044189453124,-0.0244903564453125
251,15.348,0.4545740718088789,-0.7067028513074433,1.4012222787305206,-0.9258096834057232,-0.6301122074879961,,1.084686279296875,-1.000213623046875,0.6823272705078125
252,15.398,0.027821625296460595,-0.06144819618297226,-0.01578664443588751,-0.248829316411104,-0.4016064752894769,,0.4294281005859375,-0.948455810546875,-0.2436676025390625
253,15.447,0.03195240085373069,-0.15498882657896962,-0.07670841746792517,-0.418804235873625,-0.3772425454353318,,0.4091949462890625,-0.9959716796875,-0.464569091796875
254,15.497,0.01682577151642961,-0.08241900821451598,-0.004816510493286817,-0.0583397815865763,-0.1996964452804454,,0.216522216796875,-1.06060791015625,-0.061981201171875
255,15.547,0.003939411276049992,-0.029452229418293174,-0.00035712749216152903,-0.0121247609306375,-0.132565715677075,,0.136505126953125,-1.0205535888671875,-0.0123748779296875
256,15.597,-0.0004492695014566006,0.0020377828190657477,0.0005409100630567321,-0.2565560240066206,-0.2084113056342691,,0.2079620361328125,-0.943267822265625,-0.2503814697265625
257,15.647,-0.009600188705821189,0.0422534575683472,0.0037430814531981688,-0.088240833793164,-0.2207360529636337,,0.2111358642578125,-0.9292755126953124,-0.0823211669921875
258,15.697,0.004791188657764095,-0.058932989890614906,0.005926934879424403,0.1000659639039935,-0.0806275125141109,,0.085418701171875,-1.0506744384765625,0.1056671142578125
259,15.746,0.0017733256037197054,-0.012460629005292767,0.0014645974059140782,0.1167344118830349,-0.1399503072087803,,0.1417236328125,-0.995849609375,0.1170501708984375
260,15.796,-0.0053977089301675,0.03033982123701706,-0.002809459260818714,0.0922052573434609,-0.1744345741645425,,0.169036865234375,-0.95013427734375,0.087982177734375
261,15.846,-0.014222323391754693,0.10023703735078493,-0.001775856408035962,0.0177137894382163,-0.1404582853058172,,0.1262359619140625,-0.8896942138671875,0.0157623291015625
262,15.896,-0.007597643315247801,0.07523516896286753,-0.0093494934883184,0.1233216671747628,-0.0997149528855603,,0.0921173095703125,-0.9121856689453124,0.1133575439453125
263,15.946,0.0007681132137704987,-0.03333512871710864,-0.00020679971140006616,-0.0062035378320741,-0.0230355977237295,,0.0238037109375,-1.033050537109375,-0.00640869140625
264,15.996,-0.0785664871616641,-0.1252149567926688,0.001502086718452176,-0.0063856544929719,-0.0153798416538516,,-0.0631866455078125,-1.1250762939453125,-0.0048828125
265,16.046,-0.0029213133643425024,-0.09292552466485315,0.012952770865115953,0.1380540407477246,0.031121045034095,,-0.0340423583984375,-1.0828704833984375,0.15093994140625
266,16.095,0.0005443770324211998,0.036197271957074895,-0.007178058485503042,0.1945161147624025,0.0147503096496087,,-0.0142059326171875,-0.9445953369140624,0.18731689453125
267,16.145,-0.002008599494523297,0.05354566903491109,-0.013835826869707912,0.2501762011132984,-0.0362950985179608,,0.0342864990234375,-0.9140167236328124,0.236175537109375
268,16.195,-0.0008092547414927931,-0.012093790755931533,0.0017237033718451311,0.1411019810108428,0.0661005352975697,,-0.0669097900390625,-0.9999237060546876,0.14251708984375
269,16.245,-0.0004925753292536993,-0.021002600589670628,0.0029449918816571996,0.1388618559623578,0.0232195828738713,,-0.023712158203125,-1.01104736328125,0.1417694091796875
270,16.295,-0.011334293740476106,0.1007900895837548,-0.014109115460998245,0.1386334172704779,-0.1106842693264136,,0.0993499755859375,-0.8834686279296875,0.1236724853515625
271,16.345,-0.06665106736143778,0.24537513729972416,-0.031087016281163227,0.1256871190703792,-0.2601935478301878,,0.19354248046875,-0.7125244140625,0.09027099609375
272,16.394,-0.09517087137224661,0.23012433199604543,-0.09528182546303388,0.382550483217091,-0.3569353977394341,,0.2617645263671875,-0.6329498291015625,0.2620697021484375
273,16.444,-0.8388712422553577,-0.7573727832980778,-0.42491727221387965,0.4631133472371534,-0.3301889912787952,,-0.5086822509765625,-1.593963623046875,0.0122222900390625
274,16.514,0.5616952585567422,-1.400237322926214,-0.04799071319224779,0.6039857574965785,-0.4093130422245078,,0.97100830078125,-2.127410888671875,0.503082275390625
275,16.634,2.153790179961281,2.0626506622347343,-1.5811987738103381,0.8217087789023074,-0.4243500788277816,,2.5781402587890625,1.546600341796875,-0.8371429443359375
276,16.753,-3.3835057899560432,-1.1014689298347262,-0.5602908045486518,0.916850037020699,-0.4424199745263557,,-2.9410858154296875,-1.459503173828125,0.2619476318359375
277,16.803,-2.359669171231807,1.192162670384372,0.9679802303826347,0.7763969520184065,-0.5966076477943071,,-1.7630615234375,0.686370849609375,1.591064453125
278,16.853,-2.1261197492127004,1.7209890196074504,-0.26802042867345754,0.6777573735120337,-0.7155362531189505,Straight,-1.41058349609375,1.20733642578125,0.2054443359375
279,16.903,-1.3498235240590595,0.9739669265153852,0.5222402772415763,0.5977367358722504,-0.767319251598122,,-0.5825042724609375,0.459869384765625,0.905548095703125
280,16.953,-0.7669758459038336,0.38383751816082823,1.1320061879476222,0.4112346198093354,-0.8188252111382086,,0.051849365234375,-0.1394195556640625,1.368072509765625
281,17.003,0.04945428442549582,-0.018292944165819724,0.5553593671813423,0.1059305499659931,-0.8585962526838792,,0.908050537109375,-0.5280609130859375,0.6096649169921875
282,17.052,0.23616907034882095,-0.08846192690723004,0.6211153363717075,-0.1310775001042126,-0.9012363251589915,,1.1374053955078125,-0.5180511474609375,0.5643157958984375
283,17.102,0.3901092346767373,-0.3194204847135438,0.12973028650384077,-0.2222529233984235,-0.9134948912998252,,1.3036041259765625,-0.716094970703125,0.039306640625
284,17.152,0.046362811556024175,-0.06316244224230161,-0.0012330004173416106,-0.0195173826229474,-0.5916529355142883,,0.6380157470703125,-0.86920166015625,-0.0169677734375
285,17.202,0.03675982774929931,-0.30483210827264084,0.5421445315849157,-0.0567241692760771,-0.5662827747897632,,0.6030426025390625,-1.127716064453125,0.495391845703125
286,17.252,-0.3569341827940191,-0.3836071088844911,0.04612177305272703,-0.0465740909458662,-0.5164953400205816,,0.1595611572265625,-1.2389678955078125,0.0062408447265625
287,17.302,-0.4678117104398062,-0.3705297502296868,0.3460268469786575,0.0048917367228306,-0.5098649330960562,,0.04205322265625,-1.23077392578125,0.3502349853515625
288,17.351,0.013665762780582402,-0.06847775078753648,0.028774820407130253,0.3873945865122564,-0.1809448329225426,,0.194610595703125,-0.9751739501953124,0.4097747802734375
289,17.401,-0.0370516522045905,0.11494373007554737,-0.0360087494050077,0.2989468082722895,-0.2940096600170905,,0.2569580078125,-0.797149658203125,0.249725341796875
290,17.451,-0.01138312112081169,0.05245832232414249,-0.009170297915206627,0.1721997960824462,-0.2090302158473742,,0.1976470947265625,-0.9108428955078124,0.1592254638671875
291,17.501,0.0029232141853953036,-0.06820276296553507,0.008777503300213013,0.1276444366769769,-0.0424716832755422,,0.0453948974609375,-1.0591278076171875,0.1363067626953125
292,17.551,-0.0004059247266712,-0.06198286065028802,0.01729331591238703,0.2687380316790568,0.0063079424608288,,-0.0067138671875,-1.025177001953125,0.2860260009765625
293,17.601,-0.013765161697428197,0.06319078071031037,-0.025067059991301766,0.3687356300037594,-0.1984575445099282,,0.1846923828125,-0.8478546142578125,0.336334228515625
294,17.65,-0.044199143445620426,0.10435052432976055,-0.044011196777361206,0.3886129479075737,-0.3635655985237454,,0.319366455078125,-0.753997802734375,0.3180084228515625
295,17.7,-0.2788142380992148,-0.23418594242443636,-0.08988310968205926,0.380558669109821,-0.3647975144664023,,0.0859832763671875,-1.09521484375,0.2644500732421875
296,17.75,-0.3865566888391885,-0.31668030976139616,-0.13684039376069396,0.3927472190765355,-0.361242357784501,,-0.0253143310546875,-1.174224853515625,0.2293853759765625
297,17.8,0.001424482681985799,-0.022293848929602844,0.00853656084103177,0.3575921415939965,-0.0595648972008267,,0.0609893798828125,-0.9545135498046876,0.3654937744140625
298,17.85,-0.07548601907679459,0.16402955577110745,-0.08772720230848063,0.4716123859544464,-0.3760231284517946,,0.300537109375,-0.6530609130859375,0.349273681640625
299,17.9,-0.02500966984552433,0.08789881155149071,-0.042901624663759574,0.4386231159825103,-0.2477269550017743,,0.22271728515625,-0.7827606201171875,0.382049560546875
300,17.95,-0.48354908555415343,-0.38648022251415504,-0.2757534796659272,0.4707589858063227,-0.2336406382885284,,-0.249908447265625,-1.24432373046875,0.181976318359375
301,17.999,-0.2902662624505867,-0.21718945309051252,-0.05402743105532287,0.4716412854189442,-0.2610456813958992,,-0.0292205810546875,-1.0684051513671875,0.4012603759765625
302,18.049,-0.10864593411925405,0.15921801538514158,-0.07651487625015602,0.4331461551830775,-0.5238833608770666,,0.4152374267578125,-0.6085205078125,0.2924346923828125
303,18.099,0.14030730178371736,0.4822645240065745,-0.09332288318554571,0.4771334202115645,-0.4950991923569076,,0.635406494140625,-0.2812957763671875,0.32122802734375
304,18.149,-0.00850054525726801,0.030901624470003553,-0.030564346139633325,0.7032161321414805,-0.191941707366643,,0.183441162109375,-0.6668548583984375,0.659576416015625
305,18.199,-1.025389576450856,-1.1600439829638445,-0.9418517196843654,0.704051487892196,-0.1486348157086686,,-0.8767547607421875,-1.8623046875,-0.2456207275390625
306,18.268,0.8598642807739127,-1.3057030884846683,-0.1992748433344177,0.7183975118762911,-0.2401875991088997,,1.1000518798828125,-1.9809722900390625,0.4980926513671875
307,18.408,2.406484502606373,1.8001734951948236,-1.3131103589416147,0.9071711568681202,-0.0765324651670649,,2.4830169677734375,1.380645751953125,-0.408599853515625
308,18.508,-4.171946882308115,-1.5792482059202722,-1.279589557192794,0.96879299369618,0.1451765307778224,,-4.3171234130859375,-1.824493408203125,-0.3210601806640625
309,18.597,-1.9615556811088724,2.7506956842471624,-1.045436116522368,0.9102754892231868,-0.1106187914604349,Straight,-1.8509368896484375,2.3392333984375,-0.1407470703125
310,18.647,-0.7855957165220655,1.110918805745142,0.40020536217509006,0.8367759689029399,-0.2033508434751905,,-0.582244873046875,0.5748138427734375,1.2194976806640625
311,18.697,0.07831511618797687,0.5540197135907318,0.6987187322161689,0.6607715541609219,-0.2954031455307731,,0.37371826171875,-0.1630706787109375,1.3300018310546875
312,18.747,0.7313328205573186,0.2745319978602351,0.020153417923352457,0.456262480101056,-0.3344935954583063,,1.065826416015625,-0.564056396484375,0.45013427734375
313,18.797,1.0110813818933155,0.07347993212233828,0.5386976925159668,0.333027897035424,-0.3592952050207469,,1.3703765869140625,-0.8064727783203125,0.8494873046875
314,18.847,0.6104205215865335,0.18842878181947387,0.10644821391815901,0.1582842050176232,-0.3188702498978416,,0.929290771484375,-0.7474212646484375,0.2564697265625
315,18.896,0.5030846414105501,0.039094263683213115,0.2345496704547915,0.0091245892957732,-0.2653479757769499,,0.7684326171875,-0.925018310546875,0.24334716796875
316,18.946,0.017273378963158725,-0.0500432161317258,-0.017583775737992635,-0.3315031809763036,-0.3096461767009038,,0.3269195556640625,-0.9471282958984376,-0.332794189453125
317,18.996,0.023481591415290992,-0.07001272733018371,0.008883898682018998,0.125880412940679,-0.3157060306550215,,0.3391876220703125,-1.011322021484375,0.128326416015625
318,19.046,-0.2946157932747221,-0.3111231239216026,0.12365459325462588,0.1455623803625043,-0.2963095188606596,,0.0016937255859375,-1.25604248046875,0.2626800537109375
319,19.096,0.002848209777748398,-0.03651771295579764,0.0024845510449793967,0.0678799469753163,-0.0775808673706891,,0.0804290771484375,-1.0312042236328125,0.070159912109375
320,19.146,-0.0015234793507181987,0.00996612021946286,-0.001347862134497252,0.1340242505098599,-0.1497778738819682,,0.14825439453125,-0.9698333740234376,0.13116455078125
321,19.196,-0.00016287285478549986,0.06784833825938785,-0.009897053265623124,0.1443426509234684,-0.002375397268848,,0.0022125244140625,-0.9216766357421876,0.1344451904296875
322,19.245,-0.00023404271242929986,0.005348769596640435,-0.0014493626882446375,0.2615394768171961,-0.0421957126343043,,0.041961669921875,-0.958984375,0.259857177734375
323,19.295,0.0022836023483175025,-0.03974715184727251,0.004771917117350005,0.1192008458611696,-0.0569510167923075,,0.059234619140625,-1.031005859375,0.123779296875
324,19.345,-0.005193770778694998,-0.0626219033959785,0.016235997139701586,0.2509721362375134,0.0800265661353675,,-0.0852203369140625,-1.0275115966796875,0.2664031982421875
325,19.395,-0.001008644485387799,0.04174414290975548,-0.008790102042585124,0.2060522635172172,-0.0236374286650753,,0.0226287841796875,-0.9365234375,0.19720458984375
326,19.445,-0.005888992522714881,0.08681460675705055,-0.026132976140416597,0.2882442594306449,-0.0648184358820899,,0.058929443359375,-0.8687286376953125,0.261505126953125
327,19.495,-0.0022214935676101027,0.03528559728464653,-0.008698591605122125,0.2393538741786498,-0.0610136078254226,,0.0587921142578125,-0.933837890625,0.2302093505859375
328,19.544,-0.00013556199194479993,-0.0075353493414453965,-0.00040462854256714115,-0.0536201346461107,0.0179613618361802,,-0.018096923828125,-1.0059356689453125,-0.05401611328125
329,19.594,-0.123317041656029,-0.07834286376878918,0.39287846655726466,-0.0773866726277427,0.0339858147892835,,-0.1573028564453125,-1.07476806640625,0.3155364990234375
330,19.644,-0.002005302167981303,-0.04263221961274832,0.0060669849553918465,0.140890342874628,0.0465176470507687,,-0.04852294921875,-1.031585693359375,0.1468048095703125
331,19.694,0.0005152052900268995,-0.05830334131168713,0.015675968040395005,0.2596478165049284,-0.0085332566240356,,0.0090484619140625,-1.0239715576171875,0.2753143310546875
332,19.744,-0.00022098604797129995,0.007966180582576254,0.0013031841648495635,-0.1614436055782789,-0.0273663717901588,,0.0271453857421875,-0.978546142578125,-0.1600799560546875
333,19.794,0.00016637460151829736,-0.004103141016499889,-0.0008810770036676852,-0.2099465548584337,-0.0396132884844192,,0.0397796630859375,-0.981048583984375,-0.210662841796875
334,19.843,-0.0010429478721588007,0.07881480884795433,0.008331761150004419,-0.1051273616631048,-0.0131584263877838,,0.012115478515625,-0.915557861328125,-0.0967864990234375
335,19.893,-0.023400883926072313,0.16889675173122898,0.009382978300423013,-0.0554689907783137,-0.1370330860745098,,0.1136322021484375,-0.8201446533203125,-0.045562744140625
336,19.943,-0.0312593337714748,0.24258354273251548,0.019357867064957138,-0.0795458987977032,-0.1274049636542873,,0.0961456298828125,-0.746124267578125,-0.059539794921875
337,19.993,-0.0018243697159621014,0.08482823811186313,-0.002415980686693117,0.0284693100299857,-0.0214929488175246,,0.0196685791015625,-0.9145355224609376,0.0260467529296875
338,20.043,-0.4512037342898665,-0.5171528651602708,-0.7478601793601959,0.1127051306437841,-0.050645262610179,,-0.4005584716796875,-1.5095062255859375,-0.6352996826171875
339,20.093,-0.0649134110952277,-0.6656665205018848,-0.39400984323173527,0.2591807294887122,-0.1109339189077277,,0.0460205078125,-1.6255340576171875,-0.1364288330078125
340,20.143,0.9369547594147792,-0.25852528665228647,-0.11855777422269059,0.4648185173651354,-0.1396596204680333,,1.0766143798828125,-1.13525390625,0.341705322265625
341,20.192,1.7579657239492603,-0.04909697679764258,0.0183465515365403,0.6844367205245423,-0.1122735338632396,,1.8702392578125,-0.7735595703125,0.698455810546875
342,20.442,-2.2963829288998014,2.7330162157145494,-0.6222686352005956,0.5468275270665643,-0.3546104679623013,,-1.9417724609375,1.9501800537109375,-0.1109771728515625
343,20.491,-1.2566611734009108,1.5780769292534351,0.14847114287693575,0.4889731805253371,-0.4852988687134107,Straight,-0.7713623046875,0.8153839111328125,0.5760040283203125
344,20.541,-0.20736012011519267,0.9511670637024763,0.9422116009884622,0.3701051264277882,-0.5522392705058177,,0.344879150390625,0.1766815185546875,1.250762939453125
345,20.591,0.389554279000346,0.6590979877474816,0.8658491326559662,0.1983620681357815,-0.597445232718404,,0.98699951171875,-0.1268768310546875,1.0249176025390625
346,20.641,0.444217325765371,0.02188998083270588,0.6903671061109382,0.0294952112277401,-0.610409139078379,,1.05462646484375,-0.7698516845703125,0.7137298583984375
347,20.691,0.18574728341715185,-0.005730172893858798,0.3449258551732126,-0.1112373912541626,-0.5940989079890981,,0.77984619140625,-0.8051300048828125,0.2554473876953125
348,20.741,0.2185578360190229,-0.04889356503088449,1.1949780751907007,-0.2925523614920753,-0.5639433846841021,,0.782501220703125,-0.8385772705078125,0.9533843994140624
349,20.79,-0.022589472809324884,0.06827185024471738,-0.023560109339372137,0.3262145562475214,-0.2985141554265124,,0.2759246826171875,-0.83392333984375,0.28778076171875
350,20.84,-0.3373763044623888,-0.2517500735608955,-0.8003826625076519,0.1903403197169779,-0.2945143659858263,,-0.0428619384765625,-1.1899261474609375,-0.6184844970703125
351,20.89,-0.3101727394143878,-0.30771090403654533,-0.9153565243950704,0.2116749654325582,-0.3093640235940753,,-0.0008087158203125,-1.2371063232421875,-0.7140655517578125
352,20.94,-0.3801702656647951,-0.18837571426904032,-0.4067776035450189,0.2450943538080025,-0.3146642842194826,,-0.0655059814453125,-1.1086273193359375,-0.17413330078125
353,20.99,-0.013442024671933811,0.0927532986471219,0.008397104906485334,-0.0901628718709414,-0.1428518147109963,,0.1294097900390625,-0.8929595947265625,-0.080841064453125
354,21.04,-0.03427083457185251,0.16477144571502045,0.024595320185018532,-0.1476336354549905,-0.20149190390779,,0.1672210693359375,-0.803985595703125,-0.1200103759765625
355,21.09,-0.0001756232201640998,0.04847356986058893,0.004303939715488536,-0.0884414785302209,-0.0036088507592266,,0.0034332275390625,-0.947601318359375,-0.084136962890625
356,21.139,-0.0674529593892784,-0.14721142385604757,-0.0815099610155034,-0.1169006262554108,-0.0030761283345909,,-0.0643768310546875,-1.140350341796875,-0.1984100341796875
357,21.189,-0.1085078232120384,-0.09078198073683708,-0.22144166028409396,-0.1175098308112485,-0.0116755478214134,,-0.096832275390625,-1.0837860107421875,-0.3389434814453125
358,21.239,-0.0032085792955934,0.05535672885795995,-0.0012391692727750196,0.0223795542825938,-0.0578503029284059,,0.0546417236328125,-0.942718505859375,0.0211029052734375
359,21.289,-0.03731360037971859,0.18500340007463123,0.02517358209883866,-0.1348284465520897,-0.1959744890515936,,0.158660888671875,-0.786651611328125,-0.1070404052734375
360,21.339,-0.0099481406837678,0.08875470139113384,0.04332384999604355,-0.4386597728709053,-0.1002191367775178,,0.09027099609375,-0.8053741455078125,-0.39312744140625
361,21.389,0.001708510557470802,-0.03674025916176782,-0.009981062660004647,-0.2621636216181349,-0.0448307960831542,,0.046539306640625,-1.00079345703125,-0.271881103515625
362,21.438,-0.3362952761716858,-0.34733586026998087,-0.38395586699651396,-0.1835378829356047,-0.0451575808591858,,-0.2911376953125,-1.329345703125,-0.5673065185546875
363,21.488,-0.0005529990702601018,-0.00692364944097823,-0.0001948974255621093,-0.0281383763216252,0.0795861610859899,,-0.08013916015625,-1.00335693359375,-0.0282440185546875
364,21.538,-0.039281594313801294,0.09434959269198073,-0.058607559996848246,0.5276601352795022,-0.3334252710716138,,0.2941436767578125,-0.7064971923828125,0.4388580322265625
365,21.588,0.0017089936535779997,0.10230463258731404,-0.0477294738908946,0.422793170753481,0.015136728028578,,-0.013427734375,-0.8038177490234375,0.3750152587890625
366,21.638,-0.006914142698455639,-0.03963328623286255,0.001932509678428035,0.0487019035060057,0.1716594656999819,,-0.1785736083984375,-1.02362060546875,0.0499114990234375
367,21.688,-0.2894646330626781,-0.3295816210726835,-0.26033591258873623,0.0848319885531325,0.1628058747498219,,-0.4522705078125,-1.31268310546875,-0.1766357421875
368,21.737,-0.0020453805229385807,-0.016153697822571367,0.0021597936106593496,0.1325234612566882,0.1245262747504989,,-0.1265716552734375,-0.9996185302734376,0.1336517333984375
369,21.787,-0.11676362392544348,0.30874794741349054,-0.07119088030793083,0.2246837703451736,-0.345782788964506,,0.2290191650390625,-0.6055755615234375,0.1396331787109375
370,21.837,-0.1420101530865978,0.2631761978481856,-0.17769175046919994,0.5595762991330508,-0.4082455046490978,,0.2662353515625,-0.4933929443359375,0.3331298828125
371,21.887,-0.0248226438367401,0.09645502988995447,-0.061318923140099124,0.5364921389572241,-0.2122310911023651,,0.187408447265625,-0.7282257080078125,0.46295166015625
372,21.937,-0.9061573252663531,-0.8927363408859742,-0.45016309186027903,0.53469245166718,-0.190794776438228,,-0.715362548828125,-1.722259521484375,0.07470703125
373,22.013,-0.6201741393559912,-1.3754981333377434,-0.40221775777945246,0.5867812771504226,-0.2210805114263037,,-0.3990936279296875,-2.1652069091796875,0.1700439453125
374,22.066,0.8832531834106228,-0.44333288099136825,-0.10582800455085517,0.7001730357469264,-0.3253802394409398,,1.2086334228515625,-1.1184539794921875,0.556243896484375
375,22.176,1.6970073285178182,1.5773147627699258,-0.489930024517777,0.8614441622983148,-0.3678577837868693,,2.0648651123046875,1.105072021484375,0.3111114501953125
376,22.365,-2.907329117024661,2.233785871822467,-0.12931544918014137,0.8035783554492127,-0.5217242586262234,Straight,-2.3856048583984375,1.72601318359375,0.5562286376953125
377,22.415,-1.2807544922223495,1.2154619066170569,0.7410789367648134,0.529289780022973,-0.7015613769879745,,-0.579193115234375,0.6108551025390625,1.118255615234375
378,22.465,-0.3956236749066997,0.5340438570845739,0.3619339536154435,0.1044803241342387,-0.8326201348676372,,0.4369964599609375,-0.0167694091796875,0.4197998046875
379,22.515,-0.08695186114404974,-0.006157168772565835,0.40642966108904116,-0.2638992870121406,-0.9250408504018622,,0.8380889892578125,-0.37255859375,0.306182861328125
380,22.565,0.049007624559017526,-0.7417831855072532,0.31193573706778116,-0.3983899569310982,-0.96104791743317,,1.0100555419921875,-0.9952850341796876,0.2018280029296875
381,22.615,0.04853478046129589,-0.6337610683219808,-0.17772383973500985,-0.4630189915249871,-0.9797702732496416,,1.0283050537109375,-0.8111419677734375,-0.2703857421875
382,22.665,-0.32536378830041834,-0.9351452163542088,-0.17218597666467378,-0.4730033393367035,-0.9733587834176058,,0.6479949951171875,-1.1371612548828125,-0.2806396484375
383,22.714,-0.5721988499577025,-0.9663723502226524,0.1440406643348188,-0.4359406648128232,-0.95926855210614,,0.3870697021484375,-1.220611572265625,0.0208892822265625
384,22.814,-0.8009444108640983,-1.730008726243839,-0.7948258214769798,-0.2700711264097536,-0.9639845719969108,,0.1630401611328125,-1.986083984375,-0.8666534423828125
385,22.864,0.557635538315179,-0.45730901567268967,0.17750754016121265,0.0128202927942865,-0.984814412856696,,1.542449951171875,-0.6309051513671875,0.1797332763671875
386,23.073,-4.707026273603832,-1.6335204714054683,-0.07355109671537509,0.0793594893804792,-0.8199413126663323,,-3.8870849609375,-2.20416259765625,-0.0281219482421875
387,23.123,-2.0107360255656994,1.8339402021267026,0.3419463156752757,0.2239582542399699,-0.9011016261516368,,-1.1096343994140625,1.411346435546875,0.439056396484375
388,23.173,-2.4329531527523423,0.5713004955964107,0.5202123205915811,0.0071334838142492,-0.9565127230648424,,-1.4764404296875,0.2796173095703125,0.5222930908203125
389,23.223,-1.6387810204427398,-0.2098010603440531,1.1929303636005364,-0.0325515922251929,-0.9904655907552398,Straight,-0.6483154296875,-0.3474884033203125,1.188446044921875
390,23.273,-0.7738874074307107,-0.2723111069623859,0.8965740150478413,-0.1504071572440167,-0.9991223927822732,,0.2252349853515625,-0.313720703125,0.8902740478515625
391,23.322,-0.013614922308027189,-0.4376934730030459,0.4921656358370725,-0.3073455177093643,-0.9970133598080272,,0.9833984375,-0.5111846923828125,0.4684295654296875
392,23.372,0.20540654742533948,-0.3781039039490084,0.6194199286651787,-0.4186278732615562,-0.989738105894973,,1.1951446533203125,-0.50787353515625,0.559600830078125
393,23.422,-0.11731942661890371,-0.3226523359074626,0.06701807176729627,-0.4971922758480482,-0.9851630545485912,,0.8678436279296875,-0.4715576171875,-0.018310546875
394,23.472,-0.013075412109346818,-0.41721370049825623,0.5388328486967642,-0.544569201720272,-0.9898057587890344,,0.9767303466796876,-0.5366668701171875,0.461273193359375
395,23.522,-0.4469194269996404,-1.0025376142492681,0.5227769754196641,-0.5570411542172791,-0.9959611750465154,,0.549041748046875,-1.0771026611328125,0.4727630615234375
396,23.612,-0.27846746534845246,-2.1410652183864656,0.6918267553762493,-0.5523846243681942,-0.99244146437189,,0.7139739990234375,-2.2433624267578125,0.6240386962890625
397,23.661,0.5858430292933311,-0.7853818013214987,0.5808233001088053,-0.4717557649236657,-0.9740477177769814,,1.5598907470703125,-0.984954833984375,0.4740447998046875
398,23.881,-3.719360668515125,-1.435742055669476,-1.538598217428053,-0.089914565805374,-0.9783175776948124,,-2.7410430908203125,-1.6420135498046875,-1.557220458984375
399,23.931,-2.824644335686268,1.2649110921184867,2.364240272211127,-0.3207368084696391,-0.9238417233815804,,-1.9008026123046875,0.9023590087890624,2.2414703369140625
400,23.98,-1.7108331561235726,1.1714536937921545,0.09786816007045318,-0.3984032646754862,-0.8678308367876351,Straight,-0.8430023193359375,0.715728759765625,-0.1000823974609375
401,24.03,-2.008974149237187,-0.20725848748969267,1.3822157025411044,-0.4490265024823041,-0.8434010291199994,,-1.1655731201171875,-0.6873321533203125,1.140960693359375
402,24.08,-0.9078597033099256,-0.08430364919976796,1.305935483601528,-0.5945667742937861,-0.7828902208880506,,-0.124969482421875,-0.5845489501953125,0.9360198974609376
403,24.13,0.23222327753229854,0.033782447803498816,1.2621199290480711,-0.7188841699914402,-0.7513430066473891,,0.9835662841796876,-0.4249420166015625,0.7877197265625
404,24.18,0.2644567164956432,-0.0299851877503729,0.7291908897383388,-0.8065648854714722,-0.7462702122152943,,1.0107269287109375,-0.4234771728515625,0.1923065185546875
405,24.23,0.5092874025998838,-0.24916423987034475,0.48961094972371444,-0.8640258361645318,-0.7664083981813662,,1.27569580078125,-0.5725555419921875,-0.065399169921875
406,24.279,0.3656814437016669,-0.6787369939035759,0.6560365876824821,-0.833290530410972,-0.8047439713373956,,1.1704254150390625,-1.0069122314453125,0.161376953125
407,24.369,-0.995620209599472,-2.0169062503880477,1.4648053541379977,-0.7673381476451628,-0.8200373238572845,,-0.1755828857421875,-2.3838958740234375,1.0256500244140625
408,24.419,1.1076096979448717,0.2915790171634571,1.0566796881278526,-0.7254858841578279,-0.7371168645551284,,1.8447265625,-0.1735076904296875,0.5664215087890625
409,24.499,1.430769472198664,1.1778031003036764,0.5384727466625938,-0.5698696987527194,-0.789903135223211,,2.220672607421875,0.67388916015625,0.1890106201171875
410,24.698,-2.58142537299958,2.0483034078192346,0.4130164298402742,-0.7178869397515686,-0.6351363104995801,,-1.9462890625,1.510589599609375,-0.1414794921875
411,24.748,-1.7330571121628522,0.8670062398634232,2.032165079508526,-0.7383722494097243,-0.4972325272019147,Straight,-1.2358245849609375,0.281890869140625,1.39154052734375
412,24.798,-0.8638115964093664,0.828592609155295,1.8144086611413717,-0.8382440642573905,-0.3987389645734289,,-0.4650726318359375,0.328521728515625,1.045684814453125
413,24.848,0.0982656621186534,0.19703289170027116,1.2286968105760634,-0.9317710548975486,-0.3269815302641591,,0.4252471923828125,-0.14605712890625,0.34814453125
414,24.897,1.0515713566460811,-0.04369065676626052,1.4033686730895778,-0.981102992157352,-0.2619052058539188,,1.3134765625,-0.2304229736328125,0.456512451171875
415,24.947,0.962282657380142,-0.46528113979932145,1.5482347887527226,-0.997982770693355,-0.275693416838608,,1.23797607421875,-0.52630615234375,0.58892822265625
416,24.997,0.6375033742063565,-0.41742821445134987,0.6851921522483493,-0.9952798892103236,-0.3172695750123935,,0.95477294921875,-0.50946044921875,-0.2586669921875
417,25.047,0.8033536913590378,-0.17799596314230653,0.8879712231899469,-0.9816260746152586,-0.3751588818831497,,1.1785125732421875,-0.3548736572265625,-0.0219573974609375
418,25.097,-0.47732447858125804,-1.697202772588719,1.3336850522712949,-0.9831911114492076,-0.5253744053390705,,0.0480499267578125,-1.8525543212890625,0.4971160888671875
419,25.197,-0.23708310338183097,-2.0977988285738256,2.087047196081616,-0.9954559274023476,-0.407951023303706,,0.170867919921875,-2.1847381591796875,1.178192138671875
420,25.246,1.0596726054318908,-0.49961785293468386,0.9404637263708355,-0.99884336292239,-0.1975448017946717,,1.2572174072265625,-0.5467529296875,-0.0386962890625
421,25.486,-1.9729181108669038,-0.18320092331244459,2.8385131209932015,-0.999942599953971,-0.0637841997340913,,-1.9091339111328125,-0.1938934326171875,1.840606689453125
422,25.535,-1.3834029757692314,0.9141347006466667,0.49907532847154756,-0.9973039134614962,0.0555466091917061,,-1.4389495849609375,0.8408660888671875,-0.4966888427734375
423,25.585,-0.5596164352132302,0.3383354312504328,2.855513526742791,-0.9980613304000552,0.1661373489664572,Straight,-0.7257537841796875,0.2769622802734375,1.8713226318359375
424,25.635,0.08882902097490611,0.4244502994052682,1.6967292796092077,-0.9481886184814536,0.2205123705842811,,-0.131683349609375,0.11456298828125,0.771881103515625
425,25.685,0.7130982655477641,0.34690526680042455,1.2419958798023982,-0.8372695791592755,0.2692811268758891,,0.443817138671875,-0.1796875,0.4356536865234375
426,25.735,1.2408809014758362,0.01383032935158468,1.3951880230154523,-0.6843618967309236,0.2846431085070862,,0.95623779296875,-0.685150146484375,0.7391357421875
427,25.785,1.1281407515256299,0.06250413950503231,0.43691239026100503,-0.5171008740392623,0.30770618121313,,0.8204345703125,-0.75189208984375,-0.0550994873046875
428,25.834,1.4042484898868943,-0.2051313457859132,0.690217896840777,-0.4296108094365609,0.2892887730900194,,1.114959716796875,-1.0695343017578125,0.2789764404296875
429,25.884,0.6754268781926003,-0.31968287569404796,0.35902511650307706,-0.4302863379445212,0.2797817365910378,,0.3956451416015625,-1.1863250732421875,-0.0540771484375
430,25.934,0.8108802595312989,-0.11437215443172177,0.9383275151703463,-0.4769136988144786,0.2625861921484864,,0.5482940673828125,-0.9624786376953124,0.4781494140625
431,25.984,0.0015564709200006008,-0.05017204049501223,0.021795343045582338,0.3984403145676284,-0.0284423083768744,,0.029998779296875,-0.9669952392578124,0.420074462890625
432,26.034,-0.043291322209448424,0.0852724503614527,-0.061867441847255455,0.5872469873787525,-0.3800833143969484,,0.3367919921875,-0.66339111328125,0.4813079833984375
433,26.084,-0.010664089925117706,0.1084018896759803,-0.015899874960919602,0.1451225072402771,-0.0968762481282427,,0.086212158203125,-0.8763580322265625,0.1285400390625
434,26.134,-0.2499787601121864,-0.22283184987221505,0.16176730366461556,0.2462841667207201,-0.0677277835496864,,-0.1822509765625,-1.1898040771484375,0.4074859619140625
435,26.183,-0.3917975089159935,-0.20470987089079506,0.4436039392224162,0.283031073683546,-0.0878729483691185,,-0.303924560546875,-1.1601104736328125,0.7255401611328125
436,26.233,-0.1710473249813087,0.24280478800093386,-0.2111604642089343,0.6562244865902935,-0.4693719099422462,,0.2983245849609375,-0.4234771728515625,0.3682861328125
437,26.283,0.25562881408273047,0.5876328690068029,-0.05913381418629082,0.6555832198503305,-0.462526093143832,,0.7181549072265625,-0.0818634033203125,0.5221099853515625
438,26.333,-0.9626313503549446,-1.155236181228644,-0.06433741469858212,0.6141625297762858,-0.3988648708627572,,-0.5637664794921875,-1.8789215087890625,0.4988555908203125
439,26.403,0.04289408173012066,-1.6038819083975921,0.5017343682922424,0.6714422858980669,-0.4697096780355043,,0.512603759765625,-2.2581024169921875,1.0944976806640625
440,26.712,-2.600584757551042,2.549504505660306,-0.9254134657403502,0.7318922598993085,-0.5900409343088542,,-2.0105438232421875,1.9993438720703125,-0.334503173828125
441,26.762,-1.259305992000825,1.0680117737704369,0.002472811777402939,0.5267817354032331,-0.757474937313325,Straight,-0.5018310546875,0.5130767822265625,0.3463897705078125
442,26.811,-1.1803938241720036,0.1561033474166338,1.034844397794296,0.5559758292891965,-0.7871748300313784,,-0.393218994140625,-0.3565216064453125,1.3777313232421875
443,26.861,-0.38375549829205846,0.3741844892625077,0.22859488673148964,0.3736466512500006,-0.821728520752996,,0.4379730224609375,-0.1544189453125,0.4415283203125
444,26.911,0.9557680572294857,0.03180767656204109,0.5213230848847806,0.1395206335824687,-0.8787808929658268,,1.8345489501953125,-0.4407501220703125,0.5879058837890625
445,26.961,0.13181962119881563,-0.08496695989991127,0.0802302108879312,0.0171044439041553,-0.8713389481371219,,1.0031585693359375,-0.5755767822265625,0.088623046875
446,27.011,0.012143341332426782,-0.46388466115639126,1.1343934449791349,0.0268265652923629,-0.8235042416753857,,0.8356475830078125,-1.0309906005859375,1.1496124267578125
447,27.061,-0.7178713175012587,-0.46583717843024997,0.46556080796428667,-0.0192822675796096,-0.7655702921106337,,0.047698974609375,-1.10906982421875,0.453155517578125
448,27.11,-0.8068665580244602,-0.5655213321444257,0.8022927895072703,-0.0411249494935794,-0.7215394095869602,,-0.0853271484375,-1.2573089599609375,0.7738189697265625
449,27.16,-0.642877293542624,-0.3188278586057046,0.8612902008266342,0.0166790384609757,-0.6897065171754365,,0.0468292236328125,-1.042816162109375,0.8733673095703125
450,27.21,-0.0018100295444297976,0.013883468404798038,-0.00954407906252086,0.5664963579411924,-0.1068210158725548,,0.105010986328125,-0.8054656982421875,0.5537109375
451,27.26,-0.016850952678802295,0.10888017047097154,-0.07644250009908515,0.5746038418342232,-0.1256613774834898,,0.1088104248046875,-0.70306396484375,0.4936065673828125
452,27.31,-0.353824991226095,-0.11788444315115942,0.07472002075998463,0.5853204898387526,-0.1323436679839075,,-0.2214813232421875,-0.9215545654296876,0.6548919677734375
453,27.36,0.0051933924715434,0.08947346492488051,-0.08228684123613605,0.676928443470365,0.0426842371981059,,-0.0374908447265625,-0.645904541015625,0.594024658203125
454,27.409,-0.09844440571745161,0.222494848332352,-0.19898009934321725,0.6666194968896149,-0.3132118617721391,,0.2147674560546875,-0.4853973388671875,0.4340972900390625
455,27.459,-0.004194428224055399,-0.041484840058880645,0.028541928119910187,0.5668133333178325,0.0830095512681321,,-0.0872039794921875,-0.86248779296875,0.5933990478515625
456,27.509,-0.3191900998065198,-0.35184411513924463,0.05422661527360939,0.5660918051341078,0.0942620486309802,,-0.4134521484375,-1.172515869140625,0.6177978515625
457,27.559,-0.0182036751054533,-0.14015296560918078,0.10382592881570518,0.564229195919901,0.0786896354414217,,-0.096893310546875,-0.9632110595703124,0.6663055419921875
458,27.609,0.006779987564494501,0.1115851726638708,-0.0597551468523147,0.4720825262176708,0.053487140884807,,-0.0467071533203125,-0.768707275390625,0.411651611328125
459,27.659,0.00027283968807909065,0.004362137852914505,-0.004061547098878071,0.681440667042588,0.0457287723052666,,-0.0454559326171875,-0.72674560546875,0.676666259765625
460,27.709,-0.1229359375634678,-0.1270624929286498,0.026914364903635968,0.6927160476081646,0.0428508056005947,,-0.1657867431640625,-0.8476104736328125,0.718994140625
461,27.758,-0.2299144095784262,-0.15617141589427164,0.04241872522173795,0.7050490947712902,0.0394947701090738,,-0.2694091796875,-0.864776611328125,0.746917724609375
462,27.808,-0.004761998416709462,-0.025149972600591375,0.02317641710703544,0.6776650681855874,0.1379076793176655,,-0.142669677734375,-0.7534942626953125,0.694366455078125
463,27.858,0.0007127764616070998,0.10130194928955094,-0.07894505226191773,0.614690602683501,0.0055498125944196,,-0.0048370361328125,-0.6874542236328125,0.535736083984375
464,27.908,-0.016700175412035695,0.15425793934173493,-0.13884578803043512,0.6690010481100654,-0.0802072554901607,,0.063507080078125,-0.58660888671875,0.5279998779296875
465,27.958,-0.08701840222046608,0.18169230466672004,-0.22586374628091477,0.7791809471755704,-0.2875188905017161,,0.20050048828125,-0.41864013671875,0.520416259765625
466,28.008,-0.1025091863141252,0.15072558421753735,-0.21462337573329615,0.8183546059229666,-0.3640448308453752,,0.26153564453125,-0.384552001953125,0.547576904296875
467,28.057,-0.0230771236505124,0.11572683391819949,-0.1281554535882552,0.7421789156122885,-0.1324673824395749,,0.1093902587890625,-0.5485687255859375,0.60748291015625
468,28.107,-0.464499609777282,-0.8540294467194395,-0.2597258646596935,0.683395827318073,-0.0902167728632195,,-0.3742828369140625,-1.5811004638671875,0.4208831787109375
469,28.197,0.3358556479952193,-1.3469742905792295,-0.3025850035043284,0.5970252069195064,-0.2038324623563432,,0.5396881103515625,-2.132354736328125,0.2819061279296875
470,28.247,1.3373827982928759,0.2052520786981965,-0.235989513833903,0.6126242154729064,-0.4015545796368117,,1.7389373779296875,-0.5186004638671875,0.3250732421875
471,28.464,-2.267521063455297,-1.2208968968125689,-1.449785306533739,0.2656241395345106,0.0763510068572032,,-2.3438720703125,-2.182159423828125,-1.1849365234375
472,28.516,-2.174746680444442,2.082636007143885,0.7974848618002033,0.0394457300750989,-0.1879760505616295,,-1.9867706298828125,1.101226806640625,0.8362274169921875
473,28.566,-1.4426940733598939,1.3202656483728559,0.10243972758602375,-0.0697100531763593,-0.3764251524614563,Straight,-1.0662689208984375,0.3960723876953125,0.0378570556640625
474,28.616,-0.5313030091188372,0.7540502301317384,0.6028572981191886,-0.1177663636390576,-0.4904704895875872,,-0.04083251953125,-0.1113433837890625,0.5002288818359375
475,28.666,-0.006241018600517623,0.0057983656479821954,-0.004609500705332004,0.6222890799307768,-0.6443330596161426,,0.638092041015625,-0.59283447265625,0.471282958984375
476,28.715,0.477681732457405,0.035408081959316995,0.2892629228459167,0.5014652800291824,-0.6964668271129075,,1.1741485595703125,-0.5854339599609375,0.64910888671875
477,28.765,0.913807426881565,-0.04507599260591777,-0.26092264567724816,0.431448838578931,-0.6932940135481225,,1.6071014404296875,-0.6952056884765625,0.0500030517578125
478,28.815,0.1538846110151133,-0.13402384869850348,-0.2144561888486743,0.4646045863919427,-0.6325991536333242,,0.7864837646484375,-0.8198394775390625,0.1453704833984375
479,28.865,0.5085182653788621,-0.18060404558890097,0.03824660998091112,0.5196334881344905,-0.5694236291523879,,1.07794189453125,-0.8829498291015625,0.4654083251953125
480,28.915,-0.7477626409200773,-0.8160021643384094,-0.4255411197435064,0.5904977691059822,-0.4635829534200772,,-0.2841796875,-1.5310821533203125,0.0976715087890625
481,28.965,-0.6370122134109931,-0.8263300581536087,0.2560791594268206,0.6604279578871417,-0.4731023013016181,,-0.163909912109375,-1.4878692626953125,0.837921142578125
482,29.014,0.02002557235484642,-0.040898272492165044,0.03462407754186814,0.6461363088072299,-0.3500610975670286,,0.370086669921875,-0.755828857421875,0.6398773193359375
483,29.064,-0.211447557754177,-0.7608360261213812,-0.4328722762310875,0.6513936730016038,-0.3727176993557395,,0.1612701416015625,-1.46490478515625,0.1715850830078125
484,29.114,-0.502327922839765,-1.1938173367711977,-0.32969664088226813,0.7272715329304689,-0.4439935722538276,,-0.0583343505859375,-1.808807373046875,0.32196044921875
485,29.164,0.41940837391358765,-0.10582356600856718,0.2259023561942649,0.8073115880954909,-0.5664772462036,,0.9858856201171876,-0.592132568359375,0.8911895751953125
486,29.443,-2.696477073565981,1.4901699618050566,-0.40127100638154733,0.777553010988233,-0.6769000471987935,,-2.0195770263671875,1.027313232421875,0.1710662841796875
487,29.493,-1.9962417038004738,1.1752248658932614,-0.14767431864523745,0.725463859290293,-0.8142348678629738,,-1.1820068359375,0.775665283203125,0.2734832763671875
488,29.543,-0.9699979477836814,0.13747086883205162,0.808306245496385,0.693728790280057,-0.8904843979789939,Straight,-0.0795135498046875,-0.19024658203125,1.12396240234375
489,29.593,-0.08020682371977217,-0.5387773047045713,0.5537132968999792,0.5669787120368208,-0.9238652709853972,,0.843658447265625,-0.854034423828125,0.7707061767578125
490,29.642,0.12392250833192664,-0.64262703165564,0.21899287942140794,0.439949817579434,-0.9431856459649484,,1.067108154296875,-0.941009521484375,0.36517333984375
491,29.692,0.22386526481090385,-0.39005113726422447,0.5349153771051322,0.3634457431714562,-0.9500086365562836,,1.1738739013671875,-0.6809234619140625,0.6483917236328125
492,29.742,0.04834674519469229,-0.03269790552101759,0.006617634824404459,0.1983653117015072,-0.8230674393756202,,0.8714141845703125,-0.58935546875,0.1192779541015625
493,29.792,-0.008480543992724576,0.15861428447946724,0.2835642257719938,0.1692129882130406,-0.7908902119614746,,0.78240966796875,-0.44451904296875,0.387115478515625
494,29.842,-0.007594869581044605,0.33005222938458967,0.25303044852531825,0.1468078545717808,-0.7565725307138571,,0.7489776611328125,-0.3167724609375,0.349029541015625
495,29.892,0.0044669481205179,-0.019622841335945607,0.004609858359586272,0.2286970653421569,-0.2163582471919821,,0.2208251953125,-0.970062255859375,0.2278900146484375
496,29.991,-0.4541161470231502,-1.3970481735824372,0.5605114130790234,0.3108966306775257,-0.2581475190934627,,-0.1959686279296875,-2.315277099609375,0.860870361328125
497,30.041,0.5525924865553766,-0.0021223756164039376,0.04126858147424839,0.3449976377620984,-0.4086807068039984,,0.961273193359375,-0.8587646484375,0.35614013671875
498,30.091,0.4963535449998444,0.38120983909770534,-0.05777878008388804,0.4928636667253217,-0.5182796337110931,,1.0146331787109375,-0.3629150390625,0.3637237548828125
499,30.141,0.6687436656790819,0.6810400266442057,-0.6244101451459394,0.6205238913475679,-0.6295809192818556,,1.2983245849609375,0.07177734375,-0.142303466796875
500,30.41,-1.5656013008502465,2.7913115744151185,0.09562746764612262,0.4433282225230053,-0.811618756904934,,-0.7539825439453125,2.267669677734375,0.3546142578125
501,30.46,-1.0317460124979398,0.9234504922880278,0.8932055334289057,0.4240976968678752,-0.8773881023416898,Straight,-0.15435791015625,0.48895263671875,1.0966796875
502,30.51,-0.8187332337172516,0.24399550771941086,0.39850140096096776,0.2731918615058136,-0.8904190247328766,,0.071685791015625,-0.1938323974609375,0.5228424072265625
503,30.56,-0.3756301173752018,-0.30166443170998153,0.6118938395320861,0.1200826236995853,-0.9094741115158268,,0.533843994140625,-0.71441650390625,0.6618194580078125
504,30.609,0.17135923740386583,-0.22845642739558553,0.3308453822957034,-0.1364931800304757,-0.8990142977523842,,1.07037353515625,-0.6622772216796875,0.2710723876953125
505,30.659,0.010201294012067375,-0.4231264792692283,0.4487921998055574,-0.4458802502397516,-0.9154273680973076,,0.925628662109375,-0.78338623046875,0.2693328857421875
506,30.709,0.16553860517203955,-0.3612389613707109,-0.5253592772713692,-0.5920087384283281,-0.9154550471717104,,1.08099365234375,-0.6855621337890625,-0.7635955810546875
507,30.759,-0.02172165354163602,-0.5961600279935544,0.009500017821306966,-0.5543973148252681,-0.900872044166636,,0.879150390625,-0.957427978515625,-0.2311553955078125
508,30.809,-0.40750228016002243,-0.6283832060324479,-0.09999572912799537,-0.537168816376359,-0.8810740575037724,,0.47357177734375,-1.0273284912109375,-0.35406494140625
509,30.859,-0.6885861704676611,-0.7581497765072618,-0.19045695095714832,-0.5081346953879318,-0.8661526987879736,,0.1775665283203125,-1.1885986328125,-0.4444122314453125
510,30.908,0.010119697950401102,-0.056890232134263696,-0.009986154788607066,-0.172890382672171,-0.1725737834949114,,0.1826934814453125,-1.0270538330078125,-0.1802825927734375
511,30.958,-0.007964661726086009,0.0410500994369305,0.00751307813450991,-0.1800317313123965,-0.187469056257336,,0.17950439453125,-0.9251708984375,-0.1693267822265625
512,31.008,-0.005001367172511789,0.03444285559159832,0.0037008014034063536,-0.106832656900531,-0.1428950439303243,,0.1378936767578125,-0.9496307373046876,-0.1020355224609375
513,31.058,-0.005450085207631211,0.03695503519084342,0.008146315452252278,-0.2152702878260439,-0.1425503049341937,,0.1371002197265625,-0.92962646484375,-0.204925537109375
514,31.108,-0.00042604731834640017,-0.047190841839163,-0.008120001672903193,-0.1695753087057704,0.0088970727988411,,-0.0093231201171875,-1.0326690673828125,-0.1776885986328125
515,31.158,4.063973275489959e-05,0.0051797259383538075,0.0006084759986891564,-0.1166703675929849,0.0077921045765049,,-0.00775146484375,-0.9879608154296876,-0.116058349609375
516,31.207,-0.014712913465245198,0.16463112577808414,-0.0019580956922323686,0.0118929953147465,-0.0890079574105577,,0.0742950439453125,-0.831329345703125,0.0098876953125
517,31.257,-0.09954951835535158,0.2890671614835235,-0.04608356656801227,0.1574336034930634,-0.3219768865194141,,0.2224273681640625,-0.6458740234375,0.10296630859375
518,31.307,-0.04092144680814119,0.17226218513203806,-0.10090155561511133,0.5054222549582444,-0.2008030386050162,,0.159881591796875,-0.67303466796875,0.39422607421875
519,31.357,-0.3573414159177941,-0.466672200394616,-0.8931342298618367,0.5278240797219287,-0.1548115086912316,,-0.2025299072265625,-1.3057861328125,-0.371673583984375
520,31.447,0.40681501556006794,-1.4610250194747771,-0.43205462805353556,0.6085671276904375,-0.1861262686196196,,0.5929412841796875,-2.24066162109375,0.1658782958984375
521,31.497,1.0023677397103392,-0.005898122285888596,-0.6749388828973507,0.6443940984172942,-0.3048527192740358,,1.307220458984375,-0.73419189453125,-0.06121826171875
522,31.606,2.0164239802823642,1.8278226688345733,-0.22589559993187103,0.8169976942565006,-0.1826269230379484,,2.1990509033203125,1.2608795166015625,0.577362060546875
523,31.796,-2.61542699629792,2.951143454324624,-0.9926190422105403,0.8245401717283284,-0.4675388127041699,,-2.14788818359375,2.45098876953125,-0.2637481689453125
524,31.845,-0.421636397534632,0.7732231964271086,0.07074196591355214,0.6683920263468403,-0.6782129356205695,,0.2565765380859375,0.22662353515625,0.561920166015625
525,31.895,0.07064954459596151,0.3645302908673391,0.8034626361619766,0.6481740077565602,-0.7618394690759135,Straight,0.832489013671875,-0.1287384033203125,1.22332763671875
526,31.965,1.2435073220688304,0.5158949159317154,0.32585372200780566,0.471793819315968,-0.7511521017592946,,1.994659423828125,-0.0661468505859375,0.637298583984375
527,32.015,0.25165026246459643,-0.7691860801016851,0.1269877320490086,0.3179006651408348,-0.7013526672229036,,0.9530029296875,-1.4450225830078125,0.3535919189453125
528,32.115,-0.049983322157515,-1.5910906084833596,0.513013508533904,0.4496635594765417,-0.764338790907515,,0.71435546875,-2.1670379638671875,0.8029632568359375
529,32.164,1.4258618133553291,-0.028081375481102178,-0.27182074413790874,0.6542716841062279,-0.8372760040274833,,2.2631378173828125,-0.44158935546875,0.0859222412109375
530,32.434,-3.0656680947949457,1.3415948263090118,-0.8560084786437967,0.3544248307167534,-0.9396915322949458,Straight,-2.1259765625,1.0217742919921875,-0.7347869873046875
531,32.483,-0.8449929864623532,0.16104651962900018,1.2255226990597186,0.3697019557657632,-0.9892190606811032,,0.14422607421875,0.0249786376953125,1.2796630859375
532,32.533,-0.3153631935227519,0.04024061343365445,0.6665345191688876,0.234113598376833,-0.9993689308274394,,0.6840057373046875,0.005706787109375,0.6748504638671875
533,32.583,0.6088457966123942,-0.3836109130350464,0.9116301706527996,0.1062743663991777,-0.9997967815126058,,1.608642578125,-0.403656005859375,0.9137725830078124
534,32.633,0.6590705768249511,-0.11982631155702728,0.4536971671512037,-0.0369026761893817,-0.9995750530578614,,1.6586456298828125,-0.148956298828125,0.4526214599609375
535,32.683,0.5343595244941277,-0.08657491109699597,0.8392029579448264,-0.1494389208466711,-0.9993166229668098,,1.5336761474609375,-0.1231231689453125,0.83367919921875
536,32.733,0.059690218985372745,-0.06100746220211395,0.02331842982555521,0.3570312288916831,-0.6746237458583773,,0.73431396484375,-0.750518798828125,0.286865234375
537,32.832,0.0319848206507527,-1.5285093885314998,0.9454048034116611,0.4736233491986749,-0.7114996764195598,,0.7434844970703125,-2.1473846435546875,1.2782135009765625
538,33.019,-9.59849657767212,4.168476693064651,-0.6995782629960112,0.6316597373233793,-0.2927714800158711,,-9.30572509765625,3.4272003173828125,-0.0955963134765625
539,33.121,-1.6823917141441234,2.827707104216273,-1.0875753195426405,0.3268933197948709,-0.5327945461753735,,-1.14959716796875,2.0279541015625,-0.810943603515625
540,33.171,-1.479225903745222,0.9420882363766966,1.2766919286711846,0.3610564817248087,-0.6149223148780345,,-0.8643035888671875,0.206695556640625,1.5614166259765625
541,33.221,-0.45496759260975095,0.7552394249526149,0.594718054512632,0.0962171570310949,-0.685405825031626,Straight,0.230438232421875,0.03045654296875,0.6647796630859375
542,33.271,0.355799417526653,0.24596920930398547,0.5425794074990273,-0.130018573565338,-0.741673727004597,,1.09747314453125,-0.419097900390625,0.4553680419921875
543,33.321,1.0999917901656677,0.08051050525013859,0.5893472180227766,-0.2863873020836058,-0.7691946112015198,,1.8691864013671875,-0.53173828125,0.406341552734375
544,33.371,0.6426571551151161,0.18902966172805924,-0.04950484783997677,-0.4420847948863403,-0.7328158673458214,,1.3754730224609375,-0.421295166015625,-0.350311279296875
545,33.42,0.3087789050468027,0.34734348190505404,0.4744114760375257,-0.4573241308553407,-0.6770456799141349,,0.9858245849609376,-0.30712890625,0.137847900390625
546,33.47,-0.12810036302518124,-0.31756393962495355,0.7158038973558476,-0.4767060216078057,-0.5690488493533062,,0.440948486328125,-1.0404205322265625,0.3238067626953125
547,33.55,-1.042220668101868,-1.335263979174309,0.9900343063336781,-0.3898587393952388,-0.5939479630237431,,-0.448272705078125,-2.07611083984375,0.6763916015625
548,33.6,0.033272446864235417,-0.07449343143327114,0.0396322921669906,0.4696880402250097,-0.3668282611435771,,0.4001007080078125,-0.895782470703125,0.4765777587890625
549,33.65,-0.26167235437039127,0.17103950489231345,0.059356077661646744,-0.3278507991588549,-0.8223565584719538,,0.5606842041015625,-0.366485595703125,-0.1271820068359375
550,33.7,0.0026487933330491265,-0.005418940472186495,0.002255150093991909,0.3842173258240126,-0.4113374127216384,,0.4139862060546875,-0.8469390869140625,0.3524627685546875
551,33.779,-0.1844704977588349,-1.3291114991149164,-0.17596922031235168,0.3361818523085468,-0.4680856100635224,,0.2836151123046875,-2.1613616943359375,0.1211090087890625
552,33.829,1.555185681951964,1.0810724997266643,-0.1684955051196647,0.3841636163311563,-0.6093498405089733,,2.1645355224609375,0.3490142822265625,0.1361083984375
553,33.893,1.5692889362140174,1.4995861405356345,0.23249818785912346,0.5798998368102171,-0.6585095257000451,,2.2277984619140625,0.886474609375,0.668914794921875
554,33.943,-1.8282002583138,1.8527736293700987,-0.20471746588124096,0.7529950960621734,-0.4448994770638,,-1.38330078125,1.263458251953125,0.4696502685546875
555,34.068,-2.5707200944055133,1.0493208875509736,1.3218812750919489,0.8063515250763729,-0.621699708663326,,-1.9490203857421875,0.5860748291015625,1.953460693359375
556,34.118,-2.430900670670722,0.9600345714621431,-0.33432717886171326,0.6644533327191376,-0.7492142693035344,,-1.6816864013671875,0.465057373046875,0.1057586669921875
557,34.168,-0.37624848407962097,0.09839641751574657,0.7154283243671197,0.5792332556074291,-0.8567630104468085,Straight,0.4805145263671875,-0.321990966796875,1.0141448974609375
558,34.218,0.18950951865689725,-0.14801404034399723,0.556477229163763,0.4011369644430183,-0.9119614286087278,,1.101470947265625,-0.523834228515625,0.7210540771484375
559,34.268,0.38695578242249107,-0.12739268439267387,0.3834688622656925,0.237845630776881,-0.9478067908196964,,1.3347625732421875,-0.4370880126953125,0.4593048095703125
560,34.318,0.2999448196318383,0.128884633900259,0.24094029289349767,0.1729954059676608,-0.9556551559540992,,1.2555999755859375,-0.161163330078125,0.2918853759765625
561,34.367,-0.14152209625051615,0.27287547349918156,-0.12916845203544478,0.0945993376945468,-0.9307982192973911,,0.789276123046875,-0.0910186767578125,-0.0945892333984375
562,34.417,-0.15935653815299933,0.14201316595470037,-0.06756872163550437,0.4296402102376835,-0.7117552197936243,,0.552398681640625,-0.492279052734375,0.234222412109375
563,34.537,-0.03202682896029663,-1.8410182287878538,-0.6747617072470006,0.3752985009071035,-0.7363572732962341,,0.7043304443359375,-2.4681549072265625,-0.42083740234375
564,34.587,1.0767721718117806,0.0010784883005119372,-0.15502453639231983,0.4174784943356272,-0.8444314414694694,,1.92120361328125,-0.4856719970703125,0.068603515625
565,34.806,-5.521389399456662,-2.3456117103763874,-4.831151368289109,0.2943503674043272,-0.7419551953550994,,-4.7794342041015625,-2.986358642578125,-4.6338043212890625
566,34.876,-2.651322720045256,2.6503883981456595,-0.46461279113665377,0.3688388855510764,-0.8822492337171308,,-1.769073486328125,2.212799072265625,-0.2909698486328125
567,34.926,-2.323466454776889,0.41525944722747604,0.09081539854771126,0.2174200436062222,-0.9506637204018888,Straight,-1.372802734375,0.112457275390625,0.15826416015625
568,34.975,-1.0446010450395176,-0.31178419043992434,0.9213910092101693,0.2755852865513842,-0.9832301954301425,,-0.061370849609375,-0.487091064453125,0.971649169921875
569,35.025,-0.13597184890569036,-0.29181456910701026,0.5026191885934372,0.0793122736997875,-0.9957740949994404,,0.85980224609375,-0.38336181640625,0.5099029541015625
570,35.075,0.42773126220730884,-0.6687262097962682,0.7279516834074757,-0.0360996017440055,-0.9992096557614412,,1.42694091796875,-0.7084503173828125,0.7265167236328125
571,35.125,0.22796959808716544,-0.544012362443376,0.5274819112993457,-0.1534807933494635,-0.9991727358972096,,1.227142333984375,-0.584197998046875,0.521240234375
572,35.175,-0.017596546465684648,-0.705996333851537,0.732896313801713,-0.2312097093306644,-0.9954102671688096,,0.977813720703125,-0.799102783203125,0.7107696533203125
573,35.225,-0.34935819088576203,-0.7907610394035068,0.2692984406761152,-0.3440795241787165,-0.988426794401387,,0.639068603515625,-0.933197021484375,0.21710205078125
574,35.275,-1.0742207855056471,-1.3505188560965609,-0.0987918976398606,-0.4017940708857142,-0.972383627302522,,-0.101837158203125,-1.564239501953125,-0.19256591796875
575,35.324,-1.076836788377026,-1.1465693675286792,0.41403424897188934,-0.3394895928401433,-0.9616787073223384,,-0.1151580810546875,-1.4044647216796875,0.320953369140625
576,35.374,-0.000237902196718702,0.006776590879418176,-0.0028688605530100553,0.3898522128976176,-0.0323118768060937,,0.032073974609375,-0.9136199951171876,0.38677978515625
577,35.424,-0.08398493523077172,0.2302886829299554,-0.13214038122909066,0.4976907948303344,-0.3015905260510842,,0.2176055908203125,-0.5966796875,0.342376708984375
578,35.474,-0.083620874354906,0.22562156137505374,-0.13691275257633873,0.5187794288767739,-0.3020504397845935,,0.2184295654296875,-0.58935546875,0.357635498046875
579,35.524,-0.011224741351088807,0.047992465441267895,-0.019766737856888705,0.3808343851584465,-0.2113742774839013,,0.2001495361328125,-0.8557586669921875,0.3524627685546875
580,35.574,-0.2379613899813488,-0.18253988238660535,-0.10637924825164591,0.3729164687857398,-0.1932683968172863,,-0.0446929931640625,-1.0929107666015625,0.2595062255859375
581,35.623,0.0013383422369500006,-0.02250227879830058,0.006552417196698523,0.2795773544088361,-0.05701126713805,,0.058349609375,-0.9810638427734376,0.285675048828125
582,35.673,0.0864554615392781,-0.3235471101666735,-0.026728931580314835,0.2212240605743894,-0.0698708324060344,,0.1563262939453125,-1.29638671875,0.1939544677734375
583,35.753,0.46688142128261423,-1.0537848457335128,-0.12552220551726154,0.2477690522290733,-0.1646340816470733,,0.6315155029296875,-2.0093841552734375,0.118865966796875
584,35.803,1.519724545336739,0.027578250202752064,0.15193452509377192,0.392839291865176,-0.2709859038820111,,1.79071044921875,-0.8576202392578125,0.5300750732421875
585,36.102,-2.4847659879143924,2.9667455417936806,-0.6271560903766232,0.0819265256975438,-0.517801266234705,,-1.9669647216796875,2.1141204833984375,-0.55706787109375
586,36.152,-1.5067360768604332,0.7530056336227599,0.8280897335988766,-0.0669106243926879,-0.6330025563526208,,-0.8737335205078125,-0.0194091796875,0.7762908935546875
587,36.202,-0.088028687577828,0.22856122505654364,0.9566148539629042,-0.37224103358587,-0.7252509776168905,Straight,0.6372222900390625,-0.4104461669921875,0.7003326416015625
588,36.251,0.05895695409535762,-0.3994079895161998,0.9883173980875537,-0.6260221568653282,-0.7701140908265174,,0.829071044921875,-0.8968505859375,0.5889739990234375
589,36.301,0.18453897987331436,-0.6914709729278524,0.4320330326793401,-0.8024343815669966,-0.8037727877048106,,0.988311767578125,-1.0464935302734375,-0.0453643798828125
590,36.351,-0.03555024994103262,-0.9608062700811317,-0.09623259984629162,-0.8469138036315285,-0.7955294979879076,,0.759979248046875,-1.282989501953125,-0.6093902587890625
591,36.401,-0.5561674907604849,-1.110686872771291,0.2892866219363833,-0.8335574715345406,-0.7865294292370474,,0.2303619384765625,-1.45184326171875,-0.2254791259765625
592,36.451,-0.6386976320208418,-0.790257992298633,0.12680147080838988,-0.8423197670703522,-0.7870588380755293,,0.1483612060546875,-1.12274169921875,-0.3928070068359375
593,36.501,-0.005707755111535595,0.04973794650392471,0.011498135514205005,-0.2252342063323029,-0.1111154699552856,,0.10540771484375,-0.9185333251953124,-0.21234130859375
594,36.55,-0.018453546568991105,0.15133735553090522,0.040033603039427934,-0.2557356414524854,-0.1170711002799286,,0.0986175537109375,-0.8087615966796875,-0.2139434814453125
595,36.6,-0.03309165059582719,0.16417857197086405,0.047341766748246916,-0.2770664412293283,-0.1901351076270772,,0.15704345703125,-0.779144287109375,-0.22467041015625
596,36.65,-0.004077773842927797,0.09172001102350813,0.02727728464014767,-0.2850583460595038,-0.0425756986476153,,0.0384979248046875,-0.8659210205078125,-0.2575225830078125
597,36.7,-0.0010945941550138012,-0.04765123889914602,-0.006247025209496576,-0.1299866280531213,0.0227701519387362,,-0.02386474609375,-1.038909912109375,-0.136199951171875
598,36.75,-0.0396080741011116,-0.12294144298080611,-0.04064598451590706,-0.1248840828781073,0.0418738594926384,,-0.08148193359375,-1.1142425537109375,-0.1654205322265625
599,36.8,5.462946467939961e-05,-0.008274108554050197,-0.00029219245787220904,-0.0352920718869503,-0.0065982025665706,,0.00665283203125,-1.00762939453125,-0.03558349609375
600,36.85,-8.548995590419977e-05,0.01892207374693089,0.002467631956361155,-0.1293152431560486,-0.0044800212059042,,0.00439453125,-0.9726715087890624,-0.1268463134765625
601,36.899,-0.0015238944950404024,0.04447645561106317,0.008213263353430839,-0.1815950609437614,-0.0336741630497279,,0.0321502685546875,-0.9383392333984376,-0.17327880859375
602,36.949,-0.009549041575421607,-0.06005572413955007,-0.017257402421550994,-0.2761800292423067,0.1510649720964534,,-0.160614013671875,-1.0101318359375,-0.2902679443359375
603,36.999,0.001509989216223806,0.008086774597754864,-0.0008263597260816241,0.1016571873897298,0.1826318153880988,,-0.181121826171875,-0.970001220703125,0.09912109375
604,37.049,0.0821771918109993,0.05134232234846092,0.4519828104494468,0.2148965138157151,0.1851892767719368,,-0.1030120849609375,-0.9084014892578124,0.6631622314453125
605,37.099,-0.0021330330320386975,0.04794493741064376,-0.03335658272171804,0.571105824732451,-0.0364958260007887,,0.03436279296875,-0.7723846435546875,0.5373687744140625
606,37.149,-0.1325628509496517,0.25617628059139974,-0.1423080979195357,0.4856114886955978,-0.4121496429418392,,0.2795867919921875,-0.5402984619140625,0.300140380859375
607,37.198,-0.15510220082936382,0.4877703419108712,0.004127952116151627,-0.0084625979605982,-0.3030209020012388,,0.147918701171875,-0.465179443359375,-0.003936767578125
608,37.248,-0.7461313198851575,-0.031074404558710245,0.6699965337314893,-0.0556748717916998,-0.19878329742422,,-0.5473480224609375,-1.0095977783203125,0.6154327392578125
609,37.298,-0.6581224742788625,-0.5053963762010466,0.06185840279890317,-0.1746674529275759,-0.1942552867788625,,-0.4638671875,-1.4712677001953125,-0.1094818115234375
610,37.398,0.3413086740699998,-1.1422839701599021,-0.06614315121974433,-0.0925513469761969,-0.3091887624534377,,0.6504974365234375,-2.089202880859375,-0.1541595458984375
611,37.448,1.0544281065143786,-0.1045240607016521,0.0939647463573223,0.1781150289711484,-0.3758850038371839,,1.4303131103515625,-1.0163726806640625,0.2590179443359375
612,37.497,1.236210219140959,0.2350109168663972,-0.3120638080537938,0.5084640452232653,-0.4096485455074786,,1.6458587646484375,-0.550506591796875,0.1517791748046875
613,37.577,1.7336325275535525,1.1612543988165616,-1.115400536827459,0.757937448615953,-0.4499917400245725,,2.183624267578125,0.578704833984375,-0.43853759765625
614,37.797,-0.6596963865270823,2.7626923936713252,-2.592155441792557,0.5587903235359841,-0.5917642576208323,,-0.06793212890625,2.09417724609375,-2.1417083740234375
615,37.846,-0.9341670971502565,1.1151758346160934,1.948656747875983,0.5618026848627052,-0.6142818432440065,Straight,-0.31988525390625,0.4623870849609375,2.3919677734375
616,37.896,-0.8919362115684046,0.7776715448061241,1.0373891675002502,0.1870341810231075,-0.6650685357871546,,-0.22686767578125,0.0440673828125,1.17706298828125
617,37.946,-0.06649167044531729,0.1902749059913169,-0.1097921662521324,0.4997845499262484,-0.2896972368515673,,0.22320556640625,-0.63873291015625,0.368560791015625
618,37.996,0.4437496831684231,-0.1760591382562875,0.7676022290180893,0.3007811984798618,-0.3522708246440769,,0.7960205078125,-1.0686187744140625,1.049102783203125
619,38.046,0.20220606860510543,-0.019988681702820088,0.1250056120786094,-0.0028316093922998,-0.4086795515120821,,0.6108856201171875,-0.9326629638671876,0.1224212646484375
620,38.096,0.4889279343845985,-0.11613177964919053,0.06835121221960039,-0.2589753258968983,-0.4767245314357139,,0.9656524658203124,-0.9651947021484376,-0.1593017578125
621,38.145,0.24461748059436472,-0.14318155003776112,-0.031166228643853877,-0.3504596077903984,-0.5265769774134478,,0.7711944580078125,-0.93939208984375,-0.3291015625
622,38.195,0.16470974808818784,-0.10796726930037581,0.34070188198441004,-0.4167307949337374,-0.5398495780836872,,0.704559326171875,-0.8731536865234375,-0.0100860595703125
623,38.245,-0.29693324657925957,-0.09204654569237736,-0.43595223116344056,-0.5151628836952109,-0.5453463325167596,,0.2484130859375,-0.8104705810546875,-0.867767333984375
624,38.295,-0.002401728757916388,0.0049635862964646504,0.0036385155629481414,-0.5912106818957431,-0.3635467482891664,,0.36114501953125,-0.746368408203125,-0.547119140625
625,38.345,-0.003423409654965903,0.01949522345050947,0.012748475868266995,-0.5472974495717842,-0.1454064418815284,,0.1419830322265625,-0.8085479736328125,-0.5287322998046875
626,38.395,0.0009069589470871997,-0.014557892370877679,-0.008080543731664502,-0.4853136376940447,-0.0543908926154128,,0.0552978515625,-0.887603759765625,-0.49267578125
627,38.444,-0.0005538579097406973,0.008113332373771764,0.004666704207940631,-0.4985946184256908,-0.0590713139644282,,0.0585174560546875,-0.857208251953125,-0.4930572509765625
628,38.494,-0.002667872954230502,0.03280108784802116,0.01741523260899125,-0.4689379592264198,-0.071652858305793,,0.0689849853515625,-0.8481597900390625,-0.4503173828125
629,38.544,0.0011815408182190013,-0.011426108947836688,-0.010639277564810423,-0.6814588802164836,-0.0754633566427185,,0.0766448974609375,-0.7411956787109375,-0.690155029296875
630,38.594,0.003113529857931202,-0.012198133429214164,-0.0134614947684637,-0.7410238242235304,-0.1689293168217563,,0.1720428466796875,-0.6740264892578125,-0.74383544921875
631,38.644,-0.33097915325160954,-0.40968596684912784,0.10368154003495367,-0.7456745825051201,-0.158997341728172,,-0.1719818115234375,-1.0675201416015625,-0.63250732421875
632,38.694,0.006699886740453603,-0.021970058673493553,-0.0208974517970123,-0.6891982404296075,-0.2157579990017339,,0.2224578857421875,-0.7294769287109375,-0.6938629150390625
633,38.744,0.00641653321114119,-0.027962502318544247,-0.02294693291881833,-0.6343718143216508,-0.1746595165935463,,0.1810760498046875,-0.7891082763671875,-0.6475677490234375
634,38.793,0.008179354652048693,-0.02859187423648024,-0.023368075364949448,-0.632827676965672,-0.2162621736682638,,0.2244415283203125,-0.7845611572265625,-0.6412200927734375
635,38.843,0.007510542206598497,-0.042282147738446185,-0.0371248486482012,-0.6597917438801674,-0.132305741973089,,0.1398162841796875,-0.7871246337890625,-0.6911163330078125
636,38.893,-0.010184317632159406,0.02988752392962324,0.029789198317455412,-0.7059407672463008,-0.2346105871634094,,0.22442626953125,-0.6586151123046875,-0.6564483642578125
637,38.943,-0.03364971576935383,0.07835798959776197,0.06296792172303711,-0.6264012638710089,-0.3174326747537288,,0.283782958984375,-0.66082763671875,-0.531036376953125
638,38.993,-0.013024434251412392,0.04943255875284547,0.04055821821563166,-0.6342995071920554,-0.1995936481185999,,0.1865692138671875,-0.708099365234375,-0.5809783935546875
639,39.043,-0.00562664380757949,0.027813296543123145,0.0205953571376174,-0.5950953597203862,-0.1604728352138295,,0.15484619140625,-0.7654266357421875,-0.5667877197265625
640,39.092,-0.007530214901413895,0.03421906622121551,0.01973852306430235,-0.4996608042315515,-0.1872482324795389,,0.179718017578125,-0.816680908203125,-0.4710845947265625
641,39.142,-0.003946280123815704,0.021853340826549217,0.018653112274818362,-0.6492185152680017,-0.1360721346160032,,0.1321258544921875,-0.7316741943359375,-0.6245269775390625
642,39.192,-0.0008709746206500002,-0.03391492597339141,-0.029376551821396868,-0.6547219861774078,0.0194079560434125,,-0.0202789306640625,-0.789642333984375,-0.6839752197265625
643,39.242,-0.1615282202912938,-0.1311664790395345,-0.013516430934773616,-0.6478484637810725,0.0594953392790187,,-0.2210235595703125,-0.8915863037109375,-0.66021728515625
644,39.292,-0.0973076329228468,-0.1761077357666775,0.022965426112385723,-0.6270113577145037,0.0466590418818407,,-0.1439666748046875,-0.9542694091796876,-0.603363037109375
645,39.342,-0.0033023664360266047,-0.01579472127345849,-0.016569090674845466,-0.7238185713183937,0.1427852800483484,,-0.146087646484375,-0.6987152099609375,-0.73297119140625
646,39.391,0.010390406956385462,-0.036290317779044456,-0.026968108790243694,-0.5964606297603298,-0.223969334254552,,0.2343597412109375,-0.81854248046875,-0.6082763671875
647,39.441,0.005952487396694503,0.0411530415503466,0.033041226231026566,-0.6260665793792681,0.112077365326382,,-0.1061248779296875,-0.73370361328125,-0.589080810546875
648,39.491,-0.0045007919176572875,0.02280299399935426,0.01807445451165779,-0.6211693978371684,-0.1528619979723448,,0.1483612060546875,-0.7516632080078125,-0.595794677734375
649,39.541,0.011039140662464308,-0.044227697528995025,-0.0347427712607139,-0.6177384098150638,-0.1926046581656607,,0.203643798828125,-0.815887451171875,-0.6409149169921875
650,39.591,0.011839726441259607,-0.04106417107762095,-0.04201493829603298,-0.7151521659315228,-0.1975566358634279,,0.2093963623046875,-0.72625732421875,-0.743072509765625
651,39.641,-0.0030201892099308986,0.02530783504383749,0.023191088657432468,-0.6756017747200834,-0.0876454333505559,,0.084625244140625,-0.7091217041015625,-0.649810791015625
652,39.691,0.0024455438381412037,-0.016846245587643915,-0.013714239030387598,-0.6313317232294712,-0.1118733038181088,,0.11431884765625,-0.7874908447265625,-0.641082763671875
653,39.74,0.0028504548609101024,-0.035618861034037,-0.03169235598527265,-0.6647286914015911,-0.0596800627172149,,0.062530517578125,-0.7813720703125,-0.6952362060546875
654,39.79,0.002775486917867609,-0.009350491384373716,-0.008577283693734117,-0.675981536790876,-0.2136856947227574,,0.216461181640625,-0.729248046875,-0.6689453125
