Index,Time,Acceleration X,Acceleration Y,Acceleration Z,Orientation X,Orientation Z,Punch Type,Raw Acceleration X,Raw Acceleration Y,Raw Acceleration Z
0,0.0,-1.1654549502513034,-0.04273687004532861,-0.0784528939777478,-0.8781571513900152,-0.5530739688059908,,-0.6123809814453125,-0.4412841796875,-0.8100738525390625
1,0.05,-0.7703485793723038,0.09315715469230923,-0.24460503512306975,-0.8912450822493427,-0.5257807082785538,,-0.24456787109375,-0.2926177978515625,-1.002716064453125
2,0.1,-1.4012316744219147,-0.30815857286661397,-0.4210834258208901,-0.8790928550793657,-0.5702227632891022,,-0.8310089111328125,-0.6997222900390625,-1.14324951171875
3,0.15,0.1537318682995235,0.33570708746858025,0.35596582776805774,-0.7275055843573113,0.299743220838586,,-0.1460113525390625,-0.31884765625,-0.3380889892578125
4,0.199,0.2114706134095628,0.4330631925119913,-0.2974787105454716,-0.7032660436492179,0.2011251544251878,,0.010345458984375,-0.263336181640625,-0.9863739013671876
5,0.249,0.5422459087557754,0.86224073694945,0.04638838074892704,-0.6881148505611202,0.1926975689120254,,0.34954833984375,0.150238037109375,-0.6288299560546875
6,0.299,0.5436722332811853,0.6244657654168736,-0.3986952855193562,-0.6716724491158811,0.2000290448046228,,0.3436431884765625,-0.101409912109375,-1.056793212890625
7,0.349,0.12155484489633372,0.2947161545858491,-0.4769618113332913,-0.654708303000499,0.2702975206775837,,-0.14874267578125,-0.4330291748046875,-1.1072998046875
8,0.399,-0.07365223824043021,-0.2038803776430741,-0.07106612125585132,-0.6422041278464898,0.2563038164470698,,-0.3299560546875,-0.9448089599609376,-0.6918182373046875
9,0.449,0.1678106334469599,0.0008056522471050487,-0.41084278433493826,-0.5945548012228415,0.2596838023922724,,-0.0918731689453125,-0.775665283203125,-0.9850006103515624
10,0.498,-0.12043428086757602,0.22870007723336627,-0.470715080372668,-0.5135420078827443,0.269397262101174,,-0.38983154296875,-0.5976409912109375,-0.96527099609375
11,0.548,-0.7131591655680887,0.13238300799531266,-0.24065641516488956,-0.4365691351905014,0.2349151752522237,,-0.9480743408203124,-0.7421112060546875,-0.665008544921875
12,0.598,-0.5344533678588589,0.14333400872478952,-0.03884939631420953,-0.4509514837992243,0.1675119641723911,,-0.70196533203125,-0.736602783203125,-0.483428955078125
13,0.648,0.0423065913850203,0.09073031924313368,0.11228890224614008,-0.7778211787486443,0.2812287105256453,,-0.238922119140625,-0.51239013671875,-0.6341400146484375
14,0.698,-0.017484590820068424,-0.02288191171564946,-0.028930932628448813,-0.7843326127413862,0.4283314492189941,,-0.4458160400390625,-0.58343505859375,-0.7376708984375
15,0.748,0.047925898219941476,0.15547813455257287,0.1010387384374406,-0.5449047549211417,0.250242182399629,,-0.2023162841796875,-0.656341552734375,-0.4265289306640625
16,0.798,-0.007316711833886602,-0.017079437795632146,-0.012385383704234365,-0.5870542898155212,0.3276594844551759,,-0.3349761962890625,-0.7819366455078125,-0.5670318603515625
17,0.847,-0.007651141649285487,-0.025930201849641454,-0.008593170312492071,-0.3145723707069052,0.269707867139777,,-0.2773590087890625,-0.9399871826171876,-0.3115081787109375
18,0.897,0.004650177051653909,0.02418451492365037,0.013161548339147178,-0.4780120360738435,0.1665306702157164,,-0.1618804931640625,-0.8419036865234375,-0.4581756591796875
19,0.947,-0.3232924342677612,-0.11702099692940515,0.039879376099648034,-0.4791482042543942,0.0632737278416138,,-0.386566162109375,-0.9929962158203124,-0.4383087158203125
20,0.997,-0.0014489751127599038,0.015332036820899786,0.010536840247294621,-0.5663851819392869,-0.0776513676908849,,0.076202392578125,-0.8063201904296875,-0.55413818359375
21,1.047,-0.011122834287775524,-0.041155073546528365,-0.013196428372603264,-0.3053382727517563,0.249237883485662,,-0.2603607177734375,-0.963348388671875,-0.30889892578125
22,1.097,0.013249403723527509,0.05693830891631979,0.025183513943458913,-0.404496099569559,0.20814991641884,,-0.1949005126953125,-0.8375701904296875,-0.370452880859375
23,1.146,-0.08482400651923899,0.225301219024574,0.03272104904523465,-0.1437246108420792,-0.349136750659864,,0.264312744140625,-0.7020416259765625,-0.101959228515625
24,1.196,-0.0388824493657213,0.24018235290826107,0.08896334291621888,-0.3473381002576959,-0.1500885040532213,,0.1112060546875,-0.6869354248046875,-0.2544403076171875
25,1.246,-0.010169421557545105,-0.058798076692174406,-0.007062722949388922,-0.1192609737490619,0.1692434202393299,,-0.179412841796875,-1.0373382568359375,-0.124603271484375
26,1.296,0.6764743025337119,-0.14847795736766511,-0.14744557481556142,-0.2309667205824216,0.2047335798774619,,0.47174072265625,-1.100830078125,-0.3735198974609375
27,1.346,1.8280849492410283,-0.5525754479169104,-0.6475292899557272,-0.2411254746892015,0.3022060429910282,,1.52587890625,-1.477691650390625,-0.87738037109375
28,1.482,1.133609442701462,2.1416470546170894,-2.2246953731779753,-0.0766662403790324,0.3543583440686496,,0.7792510986328125,1.20928955078125,-2.29638671875
29,1.581,-1.873414048582684,0.4046451205266651,1.5766690659907765,-0.0341859415895992,0.3775625139173159,,-2.2509765625,-0.5207977294921875,1.545013427734375
30,1.631,-0.4821117718355282,-0.2996609042156305,-0.9986999372064103,-0.0352269961376055,0.3875629107816593,Hook,-0.8696746826171875,-1.2209320068359375,-1.0311737060546875
31,1.681,-0.2269080274819169,-0.8409964953027412,-1.1503206884245938,0.0367590786027595,0.3947350389243331,,-0.62164306640625,-1.7591705322265625,-1.116546630859375
32,1.731,-0.2854280180677753,-0.08226072719151112,-0.45895455305359983,0.1114258079131714,0.3620329194322247,,-0.6474609375,-1.0086212158203125,-0.3550872802734375
33,1.781,0.0765734749712553,0.43571704342027806,0.14582889412423244,-0.3173829676441101,0.1643878060259428,,-0.0878143310546875,-0.4996795654296875,-0.167236328125
34,1.83,-0.0920982920185949,0.4534545297545073,0.014639445732176008,-0.0322674525801792,-0.1989403330342199,,0.106842041015625,-0.5260467529296875,-0.0169830322265625
35,1.88,-0.0428415047384878,0.2704366307086956,-0.05040073135443071,0.1832133712454894,-0.1538797127463003,,0.1110382080078125,-0.700927734375,0.1306304931640625
36,1.93,-0.021656099350193303,0.1948220792402673,-0.02706165448088671,0.1375834962640692,-0.1094399128267558,,0.0877838134765625,-0.7897186279296875,0.1096954345703125
37,1.98,-0.03595188970139959,0.1669096466310811,0.12199409822595086,-0.5900848973838537,-0.1713278662638996,,0.1353759765625,-0.6284942626953125,-0.4593658447265625
38,2.03,-0.010188625042031899,0.08020046123772007,0.056045761771242764,-0.5728135350845676,-0.1035724141045319,,0.0933837890625,-0.735076904296875,-0.5136871337890625
39,2.08,-0.2181063097913324,-0.38185454161184806,-0.1306117047141636,-0.6174550625098294,-0.1404848498303949,,-0.0776214599609375,-1.1606597900390625,-0.741943359375
40,2.13,0.40413102688191693,-0.9158186803315645,0.24588545908010861,-0.6666612108309073,-0.1595896762430831,,0.563720703125,-1.6516265869140625,-0.4122314453125
41,2.498,-2.324500858185677,0.5208544752454976,0.07550074696670528,-0.7105787918052359,-0.2173689001778646,,-2.1071319580078125,-0.1659393310546875,-0.6180877685546875
42,2.548,-1.6093671434645946,-0.5157990388973676,-1.177041975059192,-0.666292829879383,-0.2746961229567821,Hook,-1.3346710205078125,-1.2328033447265625,-1.8177032470703125
43,2.598,-1.3771381254800117,-0.4735792840770119,-0.6831157461430798,-0.6767900648662748,-0.3448505278237616,,-1.03228759765625,-1.1645965576171875,-1.318389892578125
44,2.648,-0.6313751761155867,-0.11976015782454585,-0.2963572584426599,-0.6532100304606744,-0.4480255667405867,,-0.183349609375,-0.79669189453125,-0.880340576171875
45,2.698,0.007908320050746487,-0.010094842799562853,-0.0029129870099270094,-0.2772496691767313,-0.6013751272148785,,0.609283447265625,-0.777740478515625,-0.22442626953125
46,2.748,-0.043373437657667324,0.05079784938510745,0.0105274152277742,-0.2029293643658799,-0.6414264161732923,,0.598052978515625,-0.7004241943359375,-0.1451568603515625
47,2.797,0.013230900514628718,-0.014924786762876008,0.001965207850842629,0.1305472439347847,-0.6601699783916213,,0.67340087890625,-0.759613037109375,0.1000213623046875
48,2.847,-0.04486988838853567,0.04424284704080683,-0.0007471130951661395,0.0168842342891994,-0.7120146637791607,,0.667144775390625,-0.6578216552734375,0.0111083984375
49,2.897,-0.012638037199683316,0.02621563893701606,-0.002044664847914615,0.0777579426841781,-0.4331855225512458,,0.4205474853515625,-0.8723602294921875,0.0680389404296875
50,2.947,0.11121381027996757,-0.0969755259557975,-0.14146342960853295,0.031484172526732,-0.4379500080794074,,0.549163818359375,-0.9955291748046876,-0.1131591796875
51,2.997,0.3459020545216876,-0.24876118567904149,-0.11497946927923036,0.0107210559957146,-0.4053796837595624,,0.75128173828125,-1.1628570556640625,-0.1051788330078125
52,3.047,0.3055762570701206,-0.34809281088934707,0.06335471182583605,0.010685811078758,-0.3538933474220669,,0.6594696044921875,-1.2833251953125,0.0733489990234375
53,3.096,0.3825711526738068,-0.4854136690769282,0.3273878725096495,-0.0750113930338534,-0.2832003317011932,,0.665771484375,-1.4417724609375,0.2554473876953125
54,3.146,0.9629303236489203,-0.7291458752987554,0.6706985471016923,-0.1796801661566067,-0.1952422837729547,,1.158172607421875,-1.693939208984375,0.494476318359375
55,3.475,-3.159176522504599,0.9919162037464825,0.4656344351723343,-0.1304309332047121,-0.2990233242624118,,-2.8601531982421875,0.0458221435546875,0.3411712646484375
56,3.575,-1.033142329671168,-0.15572868641693327,-1.8930406917812108,-0.0970035677429628,-0.3637697710774178,Hook,-0.66937255859375,-1.08282470703125,-1.9833984375
57,3.625,-0.9015956095172861,-0.12349884216560458,-1.0854951938786528,0.0553895230692104,-0.4266657999469736,,-0.4749298095703125,-1.026519775390625,-1.035400390625
58,3.675,0.01703819278720209,-0.029064547499918825,-0.028258591492557494,-0.6970960526522295,-0.3874723052596729,,0.404510498046875,-0.690032958984375,-0.6708984375
59,3.724,0.4786507603705239,-0.03194297712108696,0.2818727558971712,-0.6772681388551528,-0.4793875697076011,,0.958038330078125,-0.6776275634765625,-0.3125
60,3.774,0.3218486017848847,-0.09696833530328697,0.6437715982085132,-0.5976904037609581,-0.5054524236057403,,0.827301025390625,-0.7887420654296875,0.1280517578125
61,3.824,0.41074228581912775,-0.02433001102234078,0.6964955902284486,-0.5769960893725921,-0.5299010247277472,,0.940643310546875,-0.71697998046875,0.2071685791015625
62,3.874,0.07764800555721607,-0.05840961130691069,0.012605920728241599,0.2109621108039585,-0.7924996995209089,,0.870147705078125,-0.6545562744140625,0.141265869140625
63,3.924,0.05079416885963861,-0.07204223796082021,0.03965840000352189,0.4822470517272722,-0.5254997764528614,,0.5762939453125,-0.8173675537109375,0.449951171875
64,3.974,0.022334025316082473,-0.04492595121688758,0.027627600138399766,0.5238341906623967,-0.389943196363605,,0.4122772216796875,-0.829315185546875,0.5099945068359375
65,4.023,-0.1363374519909628,-0.23929111949047488,0.3092049884725005,0.4690601133589069,-0.3585054207409628,,0.22216796875,-1.063751220703125,0.7470855712890625
66,4.073,-0.07048758404615929,-0.4859193663991559,0.5614161001497506,0.3572145786548402,-0.3298717393195968,,0.2593841552734375,-1.3676605224609375,0.8986358642578125
67,4.123,0.19282203390144392,-0.7051404573070293,0.36239700308717904,0.2577203047549924,-0.2617830686376186,,0.4546051025390625,-1.637664794921875,0.6111297607421875
68,4.173,1.9012822542684562,-0.664529009148407,-0.8644393012348582,0.1595687294826435,-0.1634302701456064,,2.0647125244140625,-1.6384429931640625,-0.7070159912109375
69,4.462,-2.496389396950833,1.043480892840542,-0.8744346337342532,0.1153203796139531,-0.3274593432398953,,-2.1689300537109375,0.10491943359375,-0.765472412109375
70,4.512,-1.1415148851890895,0.17492423609071361,-1.6397082311488724,0.0786270679671997,-0.451832878353152,Hook,-0.6896820068359375,-0.71441650390625,-1.5695648193359375
71,4.562,-1.3218822483666455,-0.23186541589039444,-1.8236203396762025,0.1165210126948964,-0.521482468093208,,-0.8003997802734375,-1.079315185546875,-1.7241973876953125
72,4.612,-1.2126923596679897,-0.24521144877010304,-0.7708349677541506,0.2810368561470459,-0.6133729016601772,,-0.5993194580078125,-1.003173828125,-0.5488739013671875
73,4.661,-0.008767641399496602,0.18475422213266346,0.12396203657653226,-0.5571639292824215,-0.0393767722588716,,0.030609130859375,-0.6450042724609375,-0.432769775390625
74,4.711,0.6525580940799272,0.4273606109762923,-0.12608114274500737,-0.5702299753423581,-0.1606590690060103,,0.8132171630859375,-0.383453369140625,-0.68890380859375
75,4.761,1.0400265331996452,0.3129640684059324,0.36490939099419717,-0.532702232859412,-0.2288485888706673,,1.2688751220703125,-0.5108795166015625,-0.153656005859375
76,4.811,0.9135751823975828,0.3934384264437226,0.6495119921602606,-0.5319028174430414,-0.2622823615477297,,1.1758575439453125,-0.4237213134765625,0.13623046875
77,4.861,0.7573520379775684,0.4528785922707568,0.5300260038203181,-0.5298904440458895,-0.2297695440536815,,0.98712158203125,-0.37249755859375,0.014312744140625
78,4.911,-0.10094845209621184,0.13277334557722464,-0.005180370157525718,0.0389869788743734,-0.6049462548305868,,0.503997802734375,-0.6628875732421875,0.0258636474609375
79,4.96,-0.0024257224464193927,0.014340447890140773,-0.0022927842826417633,0.157877210197451,-0.1647487204932944,,0.162322998046875,-0.959625244140625,0.1534271240234375
80,5.01,0.1273886048466208,-0.4419743118114148,-0.29985690602824855,-0.0637192090409318,-0.0550149596065042,,0.182403564453125,-1.4384307861328125,-0.3634796142578125
81,5.06,0.1948912102111521,-0.6695888236362629,-0.5275741048607601,-0.1302232737878184,-0.0097901862732229,,0.204681396484375,-1.6610260009765625,-0.6577911376953125
82,5.11,0.4789763745473738,-0.8177546186897977,-0.4234445457865078,-0.1341757578115264,0.0741454419301863,,0.4048309326171875,-1.8059844970703125,-0.5572509765625
83,5.439,-2.034865648351335,1.1968521799215863,0.379231669519843,-0.2240348538107499,0.0350501231330399,,-2.069915771484375,0.222869873046875,0.15533447265625
84,5.489,-1.5623737853515527,0.04523762539688525,-0.8500871350892398,-0.3219722864653028,-0.0667683166015528,Hook,-1.49560546875,-0.8993988037109375,-1.1713409423828125
85,5.539,-1.416972494272122,0.058328560051258416,-1.0368722732870486,-0.3724262208555712,-0.1283219815768096,,-1.2886505126953125,-0.862060546875,-1.406219482421875
86,5.588,-1.3913109776487298,-0.04957824439883474,-0.7462354314339552,-0.3715385564410103,-0.2842553135862298,,-1.1070556640625,-0.939697265625,-1.102447509765625
87,5.638,-0.5336012977105169,0.22229418709344406,-0.6768440713323185,-0.4005448292347999,-0.4279952186089544,,-0.1056060791015625,-0.6058197021484375,-1.038848876953125
88,5.688,-0.5286978532552182,0.1104547381986295,-0.8460480572223529,-0.3682807418051316,-0.5526236345052182,,0.02392578125,-0.664398193359375,-1.152984619140625
89,5.738,-0.013524406849101778,0.025846554042301406,0.03081720124732834,-0.7661931452156033,-0.3187154468881643,,0.3051910400390625,-0.583251953125,-0.6954193115234375
90,5.788,-0.11502019420739329,0.1808900561694441,0.06209985788329614,-0.3247005130284213,-0.5153803016292683,,0.400360107421875,-0.629638671875,-0.216156005859375
91,5.838,-0.03848066343870038,0.031596936747290805,0.01097526889896297,-0.3281213489987747,-0.7547282220324504,,0.71624755859375,-0.5881195068359375,-0.20428466796875
92,5.888,0.015481087091199108,-0.011471954325823264,-0.0010100819366367988,-0.0877086176622676,-0.8023442302916134,,0.8178253173828125,-0.6060333251953125,-0.0533599853515625
93,5.937,-0.01311228966612532,-0.28975029209220404,0.09952320932826511,-0.115504537986321,-0.7815449068536253,,0.7684326171875,-0.909423828125,0.0274658203125
94,5.987,-0.07565847747599153,-0.7340971091638127,0.237425195055864,-0.1702795752825875,-0.7369743954447415,,0.66131591796875,-1.400146484375,0.1223297119140625
95,6.037,0.19667789031190375,-0.9989398168867759,0.45906683463459663,-0.276651645689471,-0.7078173489459086,,0.9044952392578124,-1.677764892578125,0.263641357421875
96,6.087,0.973752152332616,-0.7322904768665696,-0.11681738825990548,-0.3335581754892274,-0.674624312511134,,1.64837646484375,-1.4281768798828125,-0.363037109375
97,6.466,-2.6368361631778177,-0.45703996208956144,-1.133177151887444,-0.3667638488371587,-0.70881187118563,Hook,-1.9280242919921875,-1.11328125,-1.3918914794921875
98,6.525,-1.6120854632963375,-0.43619322099280033,-1.7396761973872577,-0.3971708487597077,-0.8120671527494625,,-0.800018310546875,-0.9717559814453124,-1.9714508056640625
99,6.575,-1.3172444977376334,-0.47730351642099567,-0.3358047888943937,-0.3180377588075564,-0.8557271637532583,,-0.461517333984375,-0.967864990234375,-0.5003662109375
100,6.625,-0.012523597586714896,0.07334083051144513,0.07594575333169917,-0.7193356872605571,-0.1177939833289024,,0.1052703857421875,-0.616485595703125,-0.6383819580078125
101,6.675,0.009577519960528302,-0.017599054928765012,-0.019370585834639242,-0.7401410365631983,-0.3436634468363467,,0.353240966796875,-0.6490936279296875,-0.7144317626953125
102,6.725,-0.08605877161248088,0.0821029658431568,0.053107435166563244,-0.5431214194459484,-0.6606742501281059,,0.574615478515625,-0.5482025146484375,-0.3545989990234375
103,6.775,-0.16537253216581194,0.12056817297229405,0.0076710910574289415,-0.0634961222421353,-0.8074776347048744,,0.6421051025390625,-0.4681396484375,-0.02978515625
104,6.825,-0.14555674244793082,0.1429908446313799,-0.017395451200415454,0.1207639435765449,-0.7107880656901183,,0.5652313232421875,-0.555267333984375,0.0675506591796875
105,6.874,0.030989909605482202,-0.034270683246140354,0.005568154807702688,0.1603727446432387,-0.6658942456679553,,0.6968841552734375,-0.770660400390625,0.125213623046875
106,6.924,-0.025316164965240473,-0.7917872957522553,-0.1548526754133744,-0.007043087550576,-0.6376208524652405,,0.6123046875,-1.5621185302734375,-0.1602783203125
107,6.974,0.1219894516610609,-0.8129000987659083,0.017812602782774564,-0.0727395676301698,-0.5737502944326891,,0.69573974609375,-1.6297607421875,-0.0417633056640625
108,7.024,0.24346958690159287,-0.7845190221263039,0.24595800988233854,-0.1673357289572759,-0.4683986992312196,,0.7118682861328125,-1.65557861328125,0.098114013671875
109,7.074,0.6715478946214928,-0.4104275875380402,0.00206188374989949,-0.1979471569171433,-0.3947515438550698,,1.0662994384765625,-1.31103515625,-0.1798095703125
110,7.124,1.3388320347431644,-0.3530955246752371,-0.10709716016402054,-0.2143708745686405,-0.2862137416240232,,1.6250457763671875,-1.2889862060546875,-0.3125
111,7.403,-2.444873775230946,0.7393510995270312,-0.9438093927506568,-0.2713317011217676,-0.3759498250356335,,-2.0689239501953125,-0.15252685546875,-1.1952362060546875
112,7.453,-1.4224317413877536,-0.10800813705936396,-0.7441937349427871,-0.2810115833330084,-0.4652784210752536,Hook,-0.9571533203125,-0.9575042724609376,-0.9929351806640624
113,7.502,-1.1632577707175893,0.005939344617055031,-1.5470902408401122,-0.2258729040924929,-0.5460702707175893,,-0.6171875,-0.810150146484375,-1.7363128662109375
114,7.552,-0.45472042209747165,-0.10120772184327698,-0.8033997769141369,0.063196158685117,-0.5732354367459092,,0.1185150146484375,-0.9189605712890624,-0.751617431640625
115,7.602,-0.5830472155808476,-0.3503689798753684,0.07649657581623637,0.3130285784386864,-0.5440610095261601,,-0.0389862060546875,-1.147247314453125,0.339141845703125
116,7.652,-0.07235101892896639,0.16677280771840097,0.014193213242061561,-0.0847985420402591,-0.3967833919758414,,0.324432373046875,-0.747833251953125,-0.0636444091796875
117,7.702,-0.2838415221181185,0.20259112525506107,-0.03364724253322314,0.1638401675481422,-0.8101781920399935,,0.526336669921875,-0.37567138671875,0.0623931884765625
118,7.752,-0.20513736284931305,0.18066213195161118,-0.11397804273242557,0.5335767673451588,-0.692655673396188,,0.487518310546875,-0.429351806640625,0.2708740234375
119,7.801,-0.0738121703486514,0.1602438733036814,-0.03791907481245768,0.2302741982354525,-0.4090325072627139,,0.3352203369140625,-0.727752685546875,0.172210693359375
120,7.851,0.1646977805893653,-0.1433150279264631,-0.35198017615959243,0.1696634987705196,-0.3415583229262597,,0.506256103515625,-1.069549560546875,-0.1925201416015625
121,7.901,0.629668044462729,-0.4529217514280732,0.13489512809714843,0.2824811254184129,-0.248597336396646,,0.878265380859375,-1.382080078125,0.40850830078125
122,7.951,0.690598034287405,-1.0079983366380607,0.46486383188710984,0.483387220843532,-0.13066051063447,,0.821258544921875,-1.8759002685546875,0.9441070556640624
123,8.28,-1.277130082895754,3.4498077685758997,0.514008568595857,0.5133147674183609,-0.1057586229348165,,-1.1713714599609375,2.5964202880859375,1.024444580078125
124,8.33,-1.9594954437188772,0.8854346581021157,0.529168763063346,0.4689036722568764,0.0446702056951853,Hook,-2.0041656494140625,0.0030670166015625,0.9976043701171876
125,8.38,-1.3758032745093545,0.7954825130934041,0.7376997423389843,0.3686548059642659,0.1599480682640831,,-1.5357513427734375,-0.1221160888671875,1.1016082763671875
126,8.429,-0.3802077241042247,1.1729532546112469,0.9406000482912755,0.2362870741829557,0.2992203764817128,,-0.6794281005859375,0.24578857421875,1.1660614013671875
127,8.479,-0.263018613274672,0.9592512962063053,1.0500424786750155,0.0177787463152214,0.4535493798893905,,-0.7165679931640625,0.0681610107421875,1.065887451171875
128,8.529,0.3004038701923123,0.1987350995097863,-0.11042171120486244,0.4856877091301669,0.7973826299579373,,-0.496978759765625,-0.3287811279296875,0.18267822265625
129,8.579,-0.041448754609929805,0.34247969326299976,0.09554822722169987,-0.2687272092586594,-0.1157895749224298,,0.0743408203125,-0.6142578125,-0.1713714599609375
130,8.629,-0.004312706338916901,0.06806098086872514,0.017619660026475525,-0.2506185554301607,-0.0612279895420419,,0.056915283203125,-0.8982086181640625,-0.2325286865234375
131,8.679,-0.02206980673736092,0.036168813621649476,-0.018195050895404075,0.4493984929495286,-0.4786127754873609,,0.45654296875,-0.748199462890625,0.3763885498046875
132,8.728,-0.13250086116040083,0.16537710946278195,0.041418862412649055,-0.2429473562554982,-0.6136562566682133,,0.4811553955078125,-0.6005401611328125,-0.1504058837890625
133,8.778,0.36461334956568026,0.444744243540388,0.3343838768731322,-0.2189390655638131,-0.5418807910593197,,0.906494140625,-0.3753204345703125,0.1503753662109375
134,8.828,0.3045387768031915,0.1418019595560719,1.0531924854250818,-0.2511773941338944,-0.4416160083530585,,0.74615478515625,-0.7266387939453125,0.8278350830078125
135,8.878,0.7940314486634321,-0.005817530990179454,0.7851865894433768,-0.3015649622025023,-0.3058983609068804,,1.0999298095703125,-0.9135589599609376,0.498077392578125
136,8.928,0.0603202083793713,-0.8902393200822215,0.8684580967041206,-0.1972902504896846,-0.1875130435737537,,0.247833251953125,-1.8531951904296875,0.6746673583984375
137,9.005,0.9842274899624918,-1.1255888446182027,0.4454652803188144,-0.0993437105719805,-0.1086985354281332,,1.092926025390625,-2.11474609375,0.346710205078125
138,9.297,-1.655624913653713,3.006275901468391,1.5372610454246947,-0.044206135257451,-0.1596379751771504,,-1.4959869384765625,2.0200653076171875,1.493621826171875
139,9.346,-1.9366935565963672,0.727433392275233,1.4464670253713912,-0.1545994119971402,-0.0319236591354298,Hook,-1.9047698974609375,-0.260040283203125,1.2919464111328125
140,9.396,-0.8904825266544774,0.4648898230431866,1.5768919524961036,-0.3936430583103375,0.0600789967830227,,-0.9505615234375,-0.4527130126953125,1.1839599609375
141,9.446,-0.5769816963230485,0.1504269501054668,1.4611428035086447,-0.684114997980764,0.132567253872264,,-0.7095489501953125,-0.572509765625,0.7830657958984375
142,9.496,0.09328204471621315,0.09767843198730464,-0.001184284267606129,0.0121234259065217,0.6906178601459007,,-0.5973358154296875,-0.62548828125,0.0075836181640625
143,9.546,0.08738198516875828,0.24818437078000344,0.043460704124068994,-0.1724898483221845,0.3276621365359458,,-0.2402801513671875,-0.6824493408203125,-0.1195068359375
144,9.596,0.576340923592775,0.6289404768927104,-0.7483057957045871,-0.4835717860590787,0.1750500300380875,,0.4012908935546875,-0.23284912109375,-1.2244110107421875
145,9.646,0.4602581299423709,0.09864094128031442,-0.37247754323283166,-0.5106162013976225,0.0868450440048709,,0.3734130859375,-0.7579193115234375,-0.88116455078125
146,9.695,0.6379655313011255,0.06588997802110752,0.044265077384309515,-0.502648827840327,0.0062211465355005,,0.631744384765625,-0.798583984375,-0.4583740234375
147,9.745,0.510591923854458,0.007105350289577705,-0.017531521322443067,-0.5113431824584139,-0.031217158176792,,0.54180908203125,-0.8518524169921875,-0.52862548828125
148,9.795,-0.0003741563552730476,0.0006285971988313488,0.00012992627370694843,-0.2024138961278231,-0.5035937608474605,,0.5032196044921875,-0.845428466796875,-0.17474365234375
149,9.845,-0.021205211662310874,0.03870221023214715,0.005536395528795049,-0.1416095608720709,-0.4767716179123109,,0.45556640625,-0.8314666748046875,-0.1189422607421875
150,9.895,-0.02783483753579369,0.061098013869691936,0.005378749832226165,-0.0876956039210549,-0.4132565904654812,,0.3854217529296875,-0.84600830078125,-0.0744781494140625
151,9.945,0.031731497290198696,-0.07868226008078094,0.014621767514435363,0.1827051028742951,-0.3685828337644888,,0.4003143310546875,-0.9926300048828124,0.1844635009765625
152,9.994,0.03431296366235492,-0.3208340314309932,0.032241850995242044,0.0891822359636118,-0.3050882814548326,,0.3394012451171875,-1.2693634033203125,0.1171722412109375
153,10.044,0.7774087617497405,-0.49995236580094427,0.019413378028159366,0.0037979415191448,-0.2214010527033845,,0.998809814453125,-1.475128173828125,0.0231170654296875
154,10.094,1.5012197729084396,-0.7738691584861455,-0.5444233810693049,-0.0320431245657679,-0.0171518091228104,,1.51837158203125,-1.7732086181640625,-0.5764617919921875
155,10.373,-2.3346618358090505,1.0997852769409322,-0.11658305717392603,-0.05146809548528,-0.0856689158871756,,-2.248992919921875,0.1047821044921875,-0.1678619384765625
156,10.423,-1.3127162736549849,0.2536187533926654,-1.9310582253054316,0.0122437495447241,-0.1277492326393598,Hook,-1.184967041015625,-0.7381134033203125,-1.918914794921875
157,10.473,-0.804717722351427,-0.03517765111154392,-1.689388514992693,0.0420833019599981,-0.1547085670779895,,-0.6500091552734375,-1.0222625732421875,-1.6478118896484375
158,10.523,-0.8011051908335989,-0.18496766764875439,-1.0197026370790503,0.1722922064802239,-0.2515599027476613,,-0.5495452880859375,-1.138336181640625,-0.8529510498046875
159,10.573,0.007093939956579004,-0.026211999225434934,-0.02237459158259769,-0.6492371128809851,-0.201615776840296,,0.208709716796875,-0.77117919921875,-0.6582794189453125
160,10.622,0.8158804624492475,0.2727291011150422,0.2945245205080868,-0.5017693041737531,-0.20967800923044,,1.0255584716796875,-0.5730438232421875,-0.1960906982421875
161,10.672,-0.03285596424262016,0.04193784116953325,-0.013342609072375028,0.3031778758696584,-0.5982398753754327,,0.5653839111328125,-0.7216644287109375,0.2295989990234375
162,10.722,0.05168249422067861,-0.04793570175092321,0.05807911435735358,0.7712400714546758,-0.5658559579277589,,0.6175384521484375,-0.5727691650390625,0.6939697265625
163,10.772,0.0045102002074532965,-0.008408363649711537,0.010768211205472222,0.7881770901859627,-0.3134829638550467,,0.3179931640625,-0.59283447265625,0.75921630859375
164,10.822,-8.304439510649353e-05,0.0006945965542665133,-0.00034980644957322005,0.4497918025793024,-0.106177404746669,,0.1060943603515625,-0.88739013671875,0.4468994140625
165,10.872,-0.2701079285570748,-0.676927782895176,0.25707922140283757,0.423441638018213,-0.0161406434008248,,-0.25396728515625,-1.582733154296875,0.6804656982421875
166,10.974,1.0941228314114493,-1.9434660947161881,-0.5810443025470151,0.6506320193192173,-0.0048456744479258,,1.098968505859375,-2.702850341796875,0.069580078125
167,11.3,-1.3270689142131915,2.985721788261025,0.7227660920057556,0.6252607016430836,-0.027310003080379,,-1.2997589111328125,2.205596923828125,1.3477935791015625
168,11.36,-1.8644087755232923,0.22218534878723284,0.6802464432121235,0.5822779334195012,0.1875016248673328,Hook,-2.051910400390625,-0.576385498046875,1.252197265625
169,11.41,-0.7777005736487742,0.6505591429142888,0.5361647437683584,0.494754500174782,0.3337648804527883,,-1.1114654541015625,-0.16864013671875,1.0025482177734375
170,11.46,-0.047027770697525284,0.7227630376541029,0.2618565101551728,0.3030135154677355,0.4499052127009122,,-0.4969329833984375,-0.128326416015625,0.532470703125
171,11.51,0.06938940219307999,0.10203136904512078,-0.07608180734811443,0.5977765035181678,0.4786759012165175,,-0.4092864990234375,-0.6018218994140625,0.448760986328125
172,11.559,-0.010503221045438105,0.1251682571395657,-0.026923781399345176,0.2102908195530663,-0.0817617659673131,,0.071258544921875,-0.8491973876953125,0.1826629638671875
173,11.609,-0.05626118977384892,0.12194955173865474,0.025118198035433997,-0.2017371916158059,-0.4117757161410364,,0.3555145263671875,-0.770599365234375,-0.158721923828125
174,11.659,0.2625332197113815,0.44351472694122995,0.7679701482747538,-0.2851450677739857,-0.3532199541167435,,0.615753173828125,-0.45318603515625,0.5012054443359375
175,11.709,0.3791409263304922,0.5664638692358115,0.7671652660889869,-0.375388948270719,-0.2686709633179454,,0.6478118896484375,-0.326324462890625,0.40557861328125
176,11.759,-0.2988999011650567,0.25602650566822793,0.029918844339513292,-0.1160685643933317,-0.7572891833916192,,0.4583892822265625,-0.39263916015625,-0.0458831787109375
177,11.809,-0.008831935625918774,0.015529642351412742,-0.0015193949122717931,0.0973734349891402,-0.4925813252743563,,0.4837493896484375,-0.8506011962890625,0.083221435546875
178,11.858,0.178573179352218,-0.22208827305831724,-0.3703259535292469,-0.1547614884190932,-0.4423222063899695,,0.6208953857421875,-1.1081390380859375,-0.509124755859375
179,11.908,0.347456387652273,-0.2915205725277964,-0.5226175803287589,-0.4028629566891618,-0.4046645840274145,,0.7521209716796875,-1.1284942626953125,-0.891021728515625
180,11.958,0.583849687268317,-0.4929417565728845,-0.8793949377344581,-0.5472331628266014,-0.3850681594113707,,0.9689178466796876,-1.265380859375,-1.384429931640625
181,12.008,0.6840939535165105,-0.5975257697885615,-0.5793063845390746,-0.4536195205347191,-0.3243136392569271,,1.0084075927734375,-1.4405517578125,-1.0084075927734375
182,12.058,0.9496348202191598,-0.6151707450579185,-0.9429395073621678,-0.3591192808299341,-0.2472493350542777,,1.1968841552734375,-1.5194854736328125,-1.2909088134765625
183,12.108,1.1677586660160328,-0.3069643739203889,-1.639390880651987,-0.15755100505569,-0.1744807138667796,,1.3422393798828125,-1.279327392578125,-1.794525146484375
184,12.361,-2.0008769552478483,3.4528480177146306,2.164747186247171,-0.278823995354225,-0.0259166280994107,,-1.9749603271484375,2.492828369140625,1.886016845703125
185,12.437,-1.784193814901712,0.17968829896476635,1.3697544804023343,-0.5198569111047813,0.1646739829498504,Hook,-1.9488677978515625,-0.66290283203125,0.85699462890625
186,12.486,-0.8009876550695417,0.1333984184411795,1.2432433709861752,-0.7750878596703912,0.2368999181726458,,-1.0378875732421875,-0.48046875,0.4902191162109375
187,12.536,0.27911510746864765,0.326607330569904,-0.08762112611305559,0.2591141359678837,0.6365675000467726,,-0.357452392578125,-0.41827392578125,0.112213134765625
188,12.586,-0.05005907363332876,0.19863700013317664,0.1838203487521809,-0.6792034990057599,-0.1818797523442663,,0.1318206787109375,-0.5230712890625,-0.4840545654296875
189,12.636,-0.0010742462820875764,0.0015886147772667947,0.0014324992342781284,-0.6696736462425752,-0.4487823761649001,,0.4477081298828125,-0.662078857421875,-0.597015380859375
190,12.686,-0.08516889655936122,0.0708614257283725,-0.012513292542895182,0.173897667119167,-0.7638645752702987,,0.6786956787109375,-0.5646820068359375,0.0997161865234375
191,12.736,-0.0980716154766258,0.19799452392817474,-0.05491348709562269,-0.0300645228069614,-0.8049045012188133,,0.7068328857421875,-0.3951416015625,-0.07275390625
192,12.785,-0.0004925986695664131,0.0005392129807454404,8.304822740468065e-05,-0.1522226017904974,-0.6701550742555039,,0.6696624755859375,-0.7330322265625,-0.1128997802734375
193,12.835,0.008869387238132354,-0.2706547865454265,-0.1794265439585196,-0.282578714140059,-0.6803090795587426,,0.689178466796875,-0.9737091064453124,-0.38653564453125
194,12.885,0.003108282876203461,-0.5383450737643191,-0.6217582774167264,-0.4066418670497258,-0.666920403647234,,0.6700286865234375,-1.219085693359375,-0.9247589111328124
195,12.935,0.14353955686397335,-0.6108301370901051,-0.5029998654230516,-0.464474297694143,-0.6211088806360267,,0.7646484375,-1.3048858642578125,-0.8670196533203125
196,12.985,0.3299378185323043,-0.466289444646272,-0.5114575416814975,-0.4749352451855804,-0.5470458240458207,,0.876983642578125,-1.2029571533203125,-0.909027099609375
197,13.035,0.7755337462553572,-0.3954631025255302,-0.214045100567197,-0.4222562909817026,-0.4476565613618303,,1.2231903076171875,-1.2060394287109375,-0.5916290283203125
198,13.357,-2.6800835789118684,0.8334115353222571,0.43653645581254186,-0.4497072294683806,-0.4818566502009311,,-2.1982269287109375,0.0507659912109375,0.04248046875
199,13.407,-1.5550131831835519,0.1705473865692595,-0.6155825245731357,-0.5151995041678622,-0.5404562984179269,Hook,-1.014556884765625,-0.550567626953125,-1.0490570068359375
200,13.457,-1.3681693096477447,-0.15118028323711552,-0.8755932514585406,-0.5739937533112784,-0.6499228496868072,,-0.7182464599609375,-0.7735137939453125,-1.31182861328125
201,13.507,-1.1902771208731167,-0.004473900112353157,-1.0019336907521832,-0.5098350537230515,-0.7389984343496792,,-0.4512786865234375,-0.58404541015625,-1.3454132080078125
202,13.557,-0.03211456192864248,0.038698775084735515,0.030980475752207304,-0.6249589255647496,-0.5437112416161425,,0.5115966796875,-0.616485595703125,-0.4935302734375
203,13.607,-0.053024097369968715,0.058927734593282266,0.0401572338880502,-0.5631380051522267,-0.5966947516668437,,0.543670654296875,-0.6042022705078125,-0.4117431640625
204,13.656,0.1982636125416889,0.04375828498215095,-0.09787060111318507,-0.4992284786602249,-0.6673217146067486,,0.8655853271484375,-0.6015625,-0.4696807861328125
205,13.706,-0.05239641350253932,0.044258177213179484,0.008775240299752546,-0.1944878220916203,-0.7577644554947268,,0.7053680419921875,-0.5958099365234375,-0.118133544921875
206,13.756,0.11410395592982481,0.19201385372597757,0.04826938678219424,-0.168100242467419,-0.7836621573514252,,0.89776611328125,-0.4203338623046875,-0.05615234375
207,13.806,0.03466291958556289,-0.033426638038420164,0.00264947561551189,0.0790145847505611,-0.7187397903753746,,0.7534027099609375,-0.726531982421875,0.057586669921875
208,13.856,0.10013934873380792,-0.3445050457035477,0.10957595161319682,0.0097554475012631,-0.6947672674771296,,0.7949066162109375,-1.0637054443359375,0.1165924072265625
209,13.906,0.09548307087939878,-0.7994772438239259,-0.14487904404446253,-0.0122517219943832,-0.6514041361518512,,0.74688720703125,-1.5581512451171875,-0.1541748046875
210,13.956,0.24146847341145583,-0.9793270645712709,0.02729262687867083,-0.0821388675320355,-0.5873584308854192,,0.828826904296875,-1.785919189453125,-0.0391845703125
211,14.005,0.512395764889201,-0.5376037959279107,-0.1501476998015883,-0.1018089530045804,-0.4919529899936115,,1.0043487548828125,-1.4037017822265625,-0.2387847900390625
212,14.055,1.1662676019034577,-0.32776831326698197,0.4827592499534067,-0.1300321155277695,-0.3616102057137299,,1.5278778076171875,-1.2521820068359375,0.3615264892578125
213,14.105,1.7310202640422772,-0.33189782594320383,-0.5401868803943555,-0.1595424364301875,-0.1771981197467854,,1.9082183837890625,-1.303466796875,-0.69720458984375
214,14.4,-2.382491588537139,1.0006771377058366,-0.6803440791221743,-0.1874224416129447,-0.2558894156855764,,-2.1266021728515625,0.0511016845703125,-0.8615264892578125
215,14.45,-1.077701041352047,0.24266505607900835,-1.047786126458418,-0.2465342900192676,-0.4029268714301718,Hook,-0.674774169921875,-0.644317626953125,-1.2734222412109375
216,14.5,-0.9196830784066988,0.2564819573435657,-1.3022723706921722,-0.3158787603729175,-0.6003776584848238,,-0.319305419921875,-0.502288818359375,-1.5548858642578125
217,14.55,-0.737921508288984,-0.08589095605549768,-0.6769890002072814,-0.3375880094017529,-0.7289340815311715,,-0.0089874267578125,-0.73028564453125,-0.9080963134765624
218,14.6,-0.17708108167513914,0.2162882424910465,0.12417730165463492,-0.4979031917050201,-0.5789365504251391,,0.40185546875,-0.4908294677734375,-0.28179931640625
219,14.65,-0.04389245777595874,0.38503184116182576,-0.2465662790767318,-0.4730781181994858,-0.7583394792603337,,0.714447021484375,-0.18927001953125,-0.5549468994140625
220,14.699,-0.04483060417707352,0.12477732149844445,0.06338493244853471,-0.4292777719821019,-0.851669593434886,,0.8068389892578125,-0.3485565185546875,-0.161590576171875
221,14.749,-0.037873755084413596,-0.07548420367765402,-0.15823385925495626,-0.3838555715741947,-0.9055190187562886,,0.867645263671875,-0.46728515625,-0.32110595703125
222,14.799,0.17207584213185678,-0.31813348316646534,-0.05851064752561941,-0.3386718434837927,-0.9268926637275182,,1.098968505859375,-0.6712799072265625,-0.1856231689453125
223,14.849,0.05185221975009702,-0.5291201731923826,0.03228941006161193,-0.2964811956837236,-0.926632887671778,,0.978485107421875,-0.88818359375,-0.0791778564453125
224,14.899,0.27074437947017194,-0.6813280068252701,-0.14213904532102167,-0.2857437120357659,-0.9015426078345156,,1.1722869873046875,-1.095977783203125,-0.265777587890625
225,14.949,0.06632090437634108,-0.9625878578227425,-0.1363869493712848,-0.2422550453185006,-0.8523955262877213,,0.9187164306640624,-1.46990966796875,-0.2630615234375
226,14.998,-0.18568058197454496,-0.7555052452632856,-0.36634111054051854,-0.2090058303279396,-0.7802392977948575,,0.5945587158203125,-1.3671722412109375,-0.4970703125
227,15.048,-0.07478120389813314,-0.5541507495434251,-0.48749629003307005,-0.1603297038234859,-0.7034127956950081,,0.628631591796875,-1.2557373046875,-0.6014556884765625
228,15.098,-0.028031589346860897,-0.44703358241226876,-1.3340206278887172,-0.0051570693701873,-0.6220562475499859,,0.594024658203125,-1.2299957275390625,-1.3380584716796875
229,15.337,-1.4290750225449669,2.9684723697926594,0.6272138867314428,0.097008039098773,-0.7899911602402795,,-0.6390838623046875,2.358245849609375,0.6866912841796875
230,15.387,-2.326690561308211,1.0468321080891703,0.5610712099799866,0.041091733493173,-0.7099150486128986,,-1.6167755126953125,0.3431396484375,0.5900115966796875
231,15.437,-2.2533507165509077,0.6071979999255547,1.332914395903554,0.0346915612193255,-0.5642027673321575,Hook,-1.68914794921875,-0.2179412841796875,1.3615570068359375
232,15.487,-1.4699739006622428,0.9788094912286547,1.3768873785202014,-0.161601688896578,-0.4055512932403678,,-1.064422607421875,0.076751708984375,1.2291717529296875
233,15.537,-1.0841050859390675,0.8377546934317901,1.0555204489354437,-0.5092799415751545,-0.2293382402359425,,-0.854766845703125,9.1552734375e-05,0.559814453125
234,15.587,-0.9871899510883251,-0.041819991633846865,0.8385562197509369,-0.7917739705307281,-0.0595471288227001,,-0.927642822265625,-0.65155029296875,0.048187255859375
235,15.636,-0.007854483452557681,-0.01501782182480449,-0.0058638458330700916,-0.363716479105363,0.4379768153755673,,-0.445831298828125,-0.8524322509765625,-0.3328399658203125
236,15.686,0.005669333372394003,0.011799631471044125,0.009802540483104139,-0.6390108129449308,0.3466574925520815,,-0.3409881591796875,-0.7097015380859375,-0.5895843505859375
237,15.736,-0.012425120426113795,0.0971710210060468,0.11382413379937983,-0.7605510481980967,-0.0827376204261138,,0.0703125,-0.5498809814453125,-0.6441192626953125
238,15.786,0.026048225587450805,0.17289039791456307,0.19289650931935753,-0.7446678658839345,0.1000533525405758,,-0.074005126953125,-0.4911956787109375,-0.54803466796875
239,15.836,-0.01700856043551019,0.02588736808738845,0.038715231213622636,-0.8312843090003003,-0.3430431063339477,,0.3260345458984375,-0.4962310791015625,-0.74212646484375
240,15.886,0.2553776244209092,-0.039544642570446265,-0.16463137651429538,-0.8776705496163482,-0.4413539429619033,,0.6967315673828125,-0.4696044921875,-0.9521942138671876
241,15.935,0.4003056122024207,-0.20966909881764995,-0.2205957273287935,-0.8904299849608469,-0.4907466338913293,,0.89105224609375,-0.6062164306640625,-0.996429443359375
242,15.985,0.2688494400991167,-0.2403791007891588,-0.42056857882656706,-0.8505014669449413,-0.4985150618540083,,0.767364501953125,-0.6963348388671875,-1.1578521728515625
243,16.035,0.04699874907263685,-0.06421320009281473,-0.051212002448763116,-0.6235172198343137,-0.4966566464351756,,0.5436553955078125,-0.7427825927734375,-0.5923919677734375
244,16.085,0.04280542280481259,-0.19711834855899535,0.9738875518523704,-0.3551131400529075,-0.4275162324686249,,0.4703216552734375,-1.042205810546875,0.652862548828125
245,16.135,0.3334461258210326,-0.5302892411393555,0.8399667265347361,-0.1765880711699895,-0.3273967696867799,,0.6608428955078125,-1.4603271484375,0.6731109619140625
246,16.185,1.1053481393445175,-1.0192355028990647,0.6141557562650848,-0.0800272049921548,-0.2156052297961075,,1.320953369140625,-1.992584228515625,0.5360107421875
247,16.494,-1.609443355976002,2.943310463173109,1.7430901366880862,-0.0500047890590831,-0.3303295864447519,,-1.27911376953125,2.0006256103515625,1.695892333984375
248,16.544,-1.5230426033194526,1.4380701232063866,1.1038436003074512,-0.2941529640394272,-0.3772143562491401,,-1.1458282470703125,0.55291748046875,0.8314208984375
249,16.593,-1.2621162269371995,0.6304320614707272,0.6830482025973104,-0.6013018310416459,-0.4554603431481369,Hook,-0.8066558837890625,-0.080902099609375,0.147735595703125
250,16.643,-1.230280599044427,-0.0906043463610075,0.01726025335709258,-0.8333281793156202,-0.5402476400600521,,-0.690032958984375,-0.5557708740234375,-0.683990478515625
251,16.693,-1.5993115052291198,-0.3828392996663555,0.2952995157327267,-0.9070982736099164,-0.5789410218306823,,-1.0203704833984375,-0.726043701171875,-0.4443206787109375
252,16.743,-1.288097449423168,-0.5489462954064653,0.14353170911110114,-0.9384529383703548,-0.6579247199309806,,-0.6301727294921875,-0.8090667724609375,-0.563201904296875
253,16.793,-0.0007605760223694004,0.06280245233598258,-0.01573019104042106,0.2429655829293218,-0.0117469041473694,,0.010986328125,-0.90716552734375,0.2272186279296875
254,16.843,-0.010770669274526523,0.021761786215177326,-0.007042056235821825,0.3078787937872195,-0.4260233548214015,,0.415252685546875,-0.8390045166015625,0.2714996337890625
255,16.892,-0.002762727770721396,0.008211399422244137,0.0016115120642472558,-0.1925794505829986,-0.3135079670285339,,0.3107452392578125,-0.9235992431640624,-0.1812591552734375
256,16.942,0.007227538404205813,-0.014116244701544156,0.0019444451571854482,0.1364567499994209,-0.4523519293692317,,0.4595794677734375,-0.897613525390625,0.1236419677734375
257,16.992,0.0029529081285434022,-0.013457197280785094,-0.004007071077144153,-0.2853813554325264,-0.2058025850355191,,0.2087554931640625,-0.95135498046875,-0.2832794189453125
258,17.042,0.029149514104141683,-0.04346108917838365,-0.008057358452424446,-0.1822863059028621,-0.5505318823802333,,0.579681396484375,-0.864288330078125,-0.1602325439453125
259,17.092,-0.2788342992624431,-0.1110853250966356,-0.3996666680977783,-0.2480155164811377,-0.5766400853952556,,0.2978057861328125,-0.902557373046875,-0.602294921875
260,17.142,0.0354685166639227,-0.06685551619634111,-0.04065823631737936,-0.5196072395278584,-0.4128499647813898,,0.4483184814453125,-0.8450469970703125,-0.513916015625
261,17.191,-0.1486226128448318,-0.16208177753020803,-0.13406773163561042,-0.5307153256966888,-0.4085560845245193,,0.2599334716796875,-0.9356689453125,-0.61846923828125
262,17.241,-0.3025406544816593,-0.23045280280089842,0.06155169912783348,-0.523299088796426,-0.3873337453019718,,0.0847930908203125,-1.016082763671875,-0.4208984375
263,17.291,-0.007515766391038806,-0.08698353293734828,-0.038478597445332274,-0.404550963524086,0.0787726857573987,,-0.0862884521484375,-0.9986572265625,-0.4417724609375
264,17.341,-0.021740124625303087,0.12054207099972858,0.015428267564753642,-0.1269550878957647,-0.1760980347815531,,0.15435791015625,-0.855865478515625,-0.1095428466796875
265,17.391,-0.4348131650180571,0.13774385773357867,-0.6591025959037655,-0.1800487026881341,-0.1372210019321196,,-0.2975921630859375,-0.83660888671875,-0.8374481201171875
266,17.441,-0.2361754992973957,-0.08024733178965104,-0.2644930084123853,-0.1853854111969318,-0.1118468860161457,,-0.12432861328125,-1.0567474365234375,-0.4487152099609375
267,17.49,-0.3591367895409881,-0.03807381684008515,-0.5258974986469371,-0.1633051517305397,-0.1146604711816131,,-0.244476318359375,-1.0181427001953125,-0.6881256103515625
268,17.54,0.0033120996806867697,0.018893181662136493,0.0006873831107950049,-0.0363585462669179,0.1725625879619368,,-0.16925048828125,-0.9654541015625,-0.035125732421875
269,17.59,0.016999197780945205,0.15355346902653322,0.004513406959233374,-0.0293803752287391,0.1099862583278202,,-0.092987060546875,-0.8399505615234375,-0.024688720703125
270,17.64,-0.011310810671379012,0.03941230901991988,-0.0007412646199772208,0.0188046213511819,-0.275806660280754,,0.264495849609375,-0.921630859375,0.017333984375
271,17.69,0.42530858170811336,-0.5087162965680097,-0.045122442064187605,0.0156936345874852,-0.2872768675106367,,0.71258544921875,-1.4664459228515625,-0.03009033203125
272,17.74,1.4583397568098768,-0.8518371748993037,-0.7544432674315392,0.0286054421354503,-0.2393531142838732,,1.69769287109375,-1.8223724365234375,-0.7266693115234375
273,18.089,-2.3581258037429667,0.7096818912822863,-0.1745136821485649,0.0603871849616794,-0.2651082256179667,Hook,-2.093017578125,-0.252777099609375,-0.1162872314453125
274,18.138,-1.3701086917606362,0.08697588176987858,-1.1076068495468414,0.0605987178858697,-0.3097144046512612,,-1.060394287109375,-0.8621063232421875,-1.04998779296875
275,18.188,-1.215790201561844,-0.19303393050549777,-0.8833349829052655,0.1506076085697856,-0.3833317054680941,,-0.83245849609375,-1.106109619140625,-0.744232177734375
276,18.238,-0.6357038098908824,0.0026301001663311396,-0.884982042368791,0.1953843195608796,-0.4749677259065074,,-0.160736083984375,-0.86041259765625,-0.713043212890625
277,18.288,0.007936654096492135,-0.006799608168040483,-0.008647307801774473,-0.7860844487957904,-0.5850961828175704,,0.5930328369140625,-0.5080718994140625,-0.6461334228515625
278,18.338,-0.053022968466311715,0.0918794266210628,-0.2639213469127426,-0.7164930208936482,-0.7018571969819367,,0.648834228515625,-0.405029296875,-0.7742919921875
279,18.388,0.19319441136218052,0.04359012717795002,0.43080395569536784,-0.6914360459388139,-0.7391023415675071,,0.9322967529296876,-0.4430389404296875,-0.034942626953125
280,18.437,0.2087754694644276,0.022108801691341495,0.2839154380161912,-0.6985199394611693,-0.7644453557308848,,0.9732208251953124,-0.4392242431640625,-0.166412353515625
281,18.487,0.2398217937960997,-0.3750711388094616,0.8106774191780506,-0.7312300757569472,-0.7530370929226503,,0.99285888671875,-0.8238983154296875,0.3295440673828125
282,18.537,0.18967259612176524,-0.6214018244815127,0.7502552349623727,-0.7754176970635852,-0.7302492788782348,,0.919921875,-1.05279541015625,0.2205047607421875
283,18.587,-0.042282797640269654,-1.1160525209986818,0.6929452723978213,-0.8331275482780762,-0.6785437839683947,,0.636260986328125,-1.5223236083984375,0.080963134765625
284,18.637,0.06281700541400237,-1.3347593448268404,0.5013820376036564,-0.8849056280364883,-0.6052738148984976,,0.6680908203125,-1.7055206298828125,-0.2030181884765625
285,18.687,0.721888065628986,-1.1780821632591307,0.6284250343517566,-0.904311608155192,-0.516789912886639,,1.238677978515625,-1.5435333251953125,-0.1457672119140625
286,18.978,-5.909513276158714,0.10864339030912029,3.6937886089211043,-0.7732821212661466,-0.2521646433462145,,-5.6573486328125,-0.5049285888671875,2.94549560546875
287,19.055,-2.2730224617796377,-0.0007371008769322396,-0.10228207335900752,-0.7761216817695752,-0.268734742053075,,-2.0042877197265625,-0.608123779296875,-0.849853515625
288,19.135,-0.8905901661293427,-0.05497758426082677,-1.296865706823623,-0.8165526757196914,-0.3236345997230928,Hook,-0.56695556640625,-0.6011810302734375,-2.0694732666015625
289,19.185,-0.09096543310086008,-0.2017633523075425,-0.04012367520065596,-0.7815833082721729,-0.4255906772414851,,0.334625244140625,-0.7662506103515625,-0.7473907470703125
290,19.235,0.044714326942188354,-0.06934829337699189,-0.040762553145250235,-0.5067378505373811,-0.4858490275499991,,0.5305633544921875,-0.8228607177734375,-0.483673095703125
291,19.285,-0.003252299638411782,0.004272635511362699,0.0010091869515653495,-0.229872561663794,-0.5952627976852868,,0.592010498046875,-0.777740478515625,-0.1837005615234375
292,19.335,0.05122101331245865,-0.06815418641879412,0.03022605574669507,0.4054137476746872,-0.5662564036797288,,0.6174774169921875,-0.8216094970703125,0.3643798828125
293,19.384,-0.019524105430277494,0.020645507309911215,-0.006329446594391247,0.2931119738215598,-0.67066241109434,,0.6511383056640625,-0.68853759765625,0.211090087890625
294,19.434,-0.04434127200523552,0.05026265264248053,-0.0016174141555441689,0.0321625959068635,-0.661360925325548,,0.6170196533203125,-0.6994171142578125,0.0225067138671875
295,19.484,0.044796698750675934,-0.07195436860143667,0.020310756420368198,0.2716575789822889,-0.5139648979290116,,0.5587615966796875,-0.8975067138671875,0.2533416748046875
296,19.534,-0.08731025490366329,-0.16451904802080897,-0.3667875232687588,0.1308858417341832,-0.4701074961146008,,0.3827972412109375,-1.0395355224609375,-0.2512664794921875
297,19.584,0.200982997082929,-0.8051919675035898,-0.12517352542932567,-0.0002948541376492,-0.409643223620196,,0.610626220703125,-1.717437744140625,-0.1254425048828125
298,19.664,0.6924456254708555,-1.0456264761424667,-1.0157320627415287,-0.0035538233741052,-0.3948041303885194,,1.087249755859375,-1.964385986328125,-1.0189971923828125
299,19.713,1.2050358670697805,-0.26625854771886837,-2.0318977210530633,0.0365041710482976,-0.3701136690630319,,1.5751495361328125,-1.1946258544921875,-1.99798583984375
300,20.011,-2.7151742203869382,0.9516453204533621,-0.7157307527801315,0.0661860730815669,-0.5033059342541256,,-2.2118682861328125,0.0894317626953125,-0.658538818359375
301,20.062,-0.6611547822304322,0.5449613138327447,-1.7978764683574522,0.0699088832913525,-0.6433172578163697,Hook,-0.0178375244140625,-0.2187652587890625,-1.744354248046875
302,20.112,-0.676744446893349,0.08167141964913693,-1.3460858435216312,0.1168247108348459,-0.745714173455849,,0.0689697265625,-0.5800323486328125,-1.26824951171875
303,20.162,-0.6520982353733046,0.004673174534733482,-1.4296807295837624,0.1878220246270753,-0.8057847588108046,,0.1536865234375,-0.576995849609375,-1.318450927734375
304,20.212,-0.009345388998040882,0.019975729397625375,0.012371714772779319,-0.5265326610535261,-0.3695748811855409,,0.3602294921875,-0.769989013671875,-0.4768829345703125
305,20.262,0.11597292976606904,-0.020691069108670135,-0.10960086713681727,-0.4214179055712855,-0.4072356883979934,,0.5232086181640625,-0.8489532470703125,-0.4944915771484375
306,20.311,0.3806814915725387,0.06045553313962371,-0.0627113616016757,-0.2644549032645025,-0.4087777369430863,,0.789459228515625,-0.8196868896484375,-0.3040618896484375
307,20.361,0.3925812101701132,0.06315822805674709,0.31732133487936026,-0.0825543836348256,-0.3621795320173868,,0.7547607421875,-0.8657684326171875,0.2403717041015625
308,20.411,0.3107995310344316,0.09344755131158167,0.3980705806654223,-0.0334957898437016,-0.3030462941608809,,0.6138458251953125,-0.8589935302734375,0.36614990234375
309,20.461,0.36815967042178377,0.004671341462203271,0.6984030587893698,-0.0498904833740994,-0.2292524389532162,,0.597412109375,-0.9674835205078124,0.64984130859375
310,20.511,0.2641356688901924,-0.48213675038341297,0.5545846708049021,-0.1034515965814092,-0.1601807373598076,,0.42431640625,-1.46392822265625,0.4524688720703125
311,20.561,0.2582057068941742,-0.9313912648925332,0.28855531514043736,-0.0840897864410125,-0.1009404112698883,,0.3591461181640625,-1.922760009765625,0.20489501953125
312,20.611,0.559912901565352,-0.815759391897379,-0.12049286940824282,0.0427051771240165,-0.0889976208955855,,0.6489105224609375,-1.810882568359375,-0.0779571533203125
313,20.66,0.6234974554960101,-0.7277442976999003,-0.23431964356054252,0.307354317738884,-0.1282725640352399,,0.75177001953125,-1.671478271484375,0.07049560546875
314,20.93,-1.6827514968984902,3.3135011893639956,1.1125957438765064,0.3844205814274244,-0.3260162674063027,,-1.3567352294921875,2.4407806396484375,1.47601318359375
315,21.009,-2.2434900368012185,0.6951375492969286,0.5454934740017164,0.2562420607284595,-0.1181085670746562,Hook,-2.1253814697265625,-0.26470947265625,0.7999420166015625
316,21.059,-0.7685065768122917,0.9525848862506384,0.5768191076086616,0.1571321221617267,0.0445579983830208,,-0.8130645751953125,-0.0340118408203125,0.733795166015625
317,21.109,-0.4594067144948474,0.6590970056028611,0.5597314787583916,0.0362506838514558,0.2464648675364026,,-0.70587158203125,-0.309417724609375,0.5948638916015625
318,21.159,0.03518883603102019,0.04444255303178346,-0.044772830772984884,0.7097196460980181,0.4871389092732077,,-0.4519500732421875,-0.57080078125,0.575042724609375
319,21.209,-0.010392863750636916,-0.027237971147520246,0.006967801448950595,0.2478315262168267,0.3467238354681131,,-0.35711669921875,-0.935943603515625,0.2394256591796875
320,21.258,-0.0004454793749325992,-0.04509412178182859,0.016538684046749852,0.3443312274509729,0.0092743692578799,,-0.0097198486328125,-0.9839019775390624,0.3608551025390625
321,21.308,-0.008014593210367016,0.021403047316904344,-0.010172594176393768,0.4292684349708716,-0.3203772641088045,,0.3123626708984375,-0.83416748046875,0.3964691162109375
322,21.358,-0.0224490634657033,0.046633874812122,-0.01369609516220488,0.2817922989322884,-0.4193149081922658,,0.3968658447265625,-0.8244171142578125,0.24212646484375
323,21.408,0.009414901615766191,-0.01997424021886196,0.008905671514427171,0.4072161475379064,-0.3954160310014213,,0.4048309326171875,-0.8588714599609375,0.3829345703125
324,21.458,0.014942990513286403,-0.1575045606087676,0.2789504208141972,0.1303468299481312,-0.3343764674945261,,0.3493194580078125,-1.0919036865234375,0.40179443359375
325,21.508,0.4224995570717,-0.23814984996557953,0.14344022808705892,-0.1500204992011512,-0.323075394100175,,0.745574951171875,-1.1738128662109375,0.00146484375
326,21.558,0.4447978751652459,-0.4975830195544384,-0.01949652697463139,-0.2676168403970124,-0.2728077156550666,,0.7176055908203125,-1.424560546875,-0.2769622802734375
327,21.607,0.7768941403921501,-0.9133502256468365,0.2855335753668146,-0.340376763981238,-0.1985697267953499,,0.9754638671875,-1.8349151611328125,-0.048065185546875
328,21.657,1.5023339009643513,-0.5744194100185246,-0.7916767526414061,-0.411423037510025,-0.1281592630981487,,1.6304931640625,-1.4783477783203125,-1.19970703125
329,21.956,-2.532034714756586,0.49172579376814685,0.24740610926887968,-0.4366128609096832,-0.1821811991315856,,-2.349853515625,-0.3928680419921875,-0.1819000244140625
330,22.046,-0.7058817598896716,0.13968108030203097,-1.7430012138357722,-0.3114429249375675,-0.1960398409443591,Hook,-0.5098419189453125,-0.792144775390625,-2.04840087890625
331,22.096,-0.840571107092497,-0.4216790014355237,-0.6236335590493431,-0.1666679447573727,-0.2210490123659345,,-0.6195220947265625,-1.38330078125,-0.7861785888671875
332,22.146,0.0037706136991128986,0.061098139142214736,0.018789389803525125,-0.2939423971969516,0.0588853597928629,,-0.05511474609375,-0.89306640625,-0.2746429443359375
333,22.195,-0.15192575736537417,0.22186808282127946,0.09742905424863463,-0.4020715574391221,-0.5311982183028742,,0.3792724609375,-0.5538787841796875,-0.24322509765625
334,22.245,-0.20349562625846618,0.2004665563368505,0.03242089879517991,-0.1596527820878649,-0.7078443811412787,,0.5043487548828125,-0.4968414306640625,-0.080352783203125
335,22.295,0.08312059921114878,0.20077846514206166,0.0849252841509024,-0.1551099693129095,-0.7389771791091637,,0.8220977783203125,-0.4647979736328125,-0.0195770263671875
336,22.345,0.02986836840993301,-0.024757505507638,-0.0007631811560359046,-0.0308116180989131,-0.769753213621317,,0.79962158203125,-0.6627960205078125,-0.0204315185546875
337,22.395,0.12807696862789064,-0.36815839677407647,0.12382682876549739,-0.0732784162922536,-0.7504325528564844,,0.878509521484375,-1.0273284912109375,0.0753936767578125
338,22.445,-0.11579807147966314,-0.7597427810123744,-0.020968500890986133,-0.1224874236185937,-0.7196341310499756,,0.6038360595703125,-1.4488677978515625,-0.10601806640625
339,22.495,0.18112802858321286,-0.7517047874582432,0.06117052120246819,-0.1594781165356853,-0.6961760485652246,,0.8773040771484375,-1.46038818359375,-0.053314208984375
340,22.544,0.23574027394663444,-0.6811784364554717,0.28347544944674335,-0.1583290366333249,-0.6686176362096156,,0.90435791015625,-1.4154052734375,0.165740966796875
341,22.594,0.6587988883988507,-0.49000317752243716,0.16211127040419132,-0.1871874188940963,-0.6231835334761493,,1.281982421875,-1.2582550048828125,0.015716552734375
342,22.923,-2.9209463056153133,0.5691001976269227,-0.36691687874148216,-0.2199621043791911,-0.6861440595215635,,-2.23480224609375,-0.1405487060546875,-0.5269317626953125
343,22.973,-1.6186483930048206,0.08488677243146614,-1.7275856916127599,-0.2834556921903821,-0.756267411559508,Hook,-0.8623809814453125,-0.54254150390625,-1.9130401611328125
344,23.043,-1.096709582722465,-0.04186328572227227,-1.8592020243866578,-0.1930852847133889,-0.8268273805740276,,-0.2698822021484375,-0.5937347412109375,-1.967803955078125
345,23.093,-0.8964212829594134,-0.3759922140025817,-0.8588697311143886,-0.1174536197869324,-0.8780954772953509,,-0.0183258056640625,-0.851165771484375,-0.915069580078125
346,23.142,-0.05509879114818539,0.10135226995721514,0.04238565912773068,-0.3858214910734741,-0.4483177852888104,,0.393218994140625,-0.7233123779296875,-0.302490234375
347,23.192,-0.05205675863719966,0.064494904378679,0.06818415380140963,-0.7264876693708924,-0.4850401570746996,,0.4329833984375,-0.53643798828125,-0.5671234130859375
348,23.242,0.01928439628762635,-0.015651406124463252,0.0074719706371280115,0.4308226305927332,-0.7435329865248737,,0.7628173828125,-0.619110107421875,0.295562744140625
349,23.292,0.08544876271221724,-0.15576887985372057,-0.1507352442796567,0.3789946197160201,-0.7637333661940328,,0.84918212890625,-0.753143310546875,0.0939178466796875
350,23.342,0.042640069698163474,-0.35012318478084925,-0.38748075096644996,0.3377750088851667,-0.7577139342080865,,0.80035400390625,-0.96435546875,-0.16705322265625
351,23.392,-0.16656319387133578,-0.5443305311818486,-0.36776383818903335,0.3373756458713782,-0.7299329448478983,,0.5633697509765625,-1.187774658203125,-0.1371612548828125
352,23.442,-0.16125110720899993,-0.6672573914670511,-0.06981282593584986,0.2741517960778123,-0.6748161706855624,,0.5135650634765625,-1.3769683837890625,0.13250732421875
353,23.491,-0.046403523394075386,-0.5430230126557958,-0.31749685708051273,0.263885355043057,-0.5909286698784504,,0.544525146484375,-1.3211517333984375,-0.1046142578125
354,23.541,-0.041166975983079,-0.8643992790346283,-0.38109138274528637,0.2449911951415374,-0.428740218170579,,0.3875732421875,-1.74029541015625,-0.159759521484375
355,23.88,-2.804783944577513,0.8168128161758752,-0.29371388908025986,0.2292300223739239,-0.455632333249388,,-2.349151611328125,-0.049652099609375,-0.08966064453125
356,23.93,-1.6851858741494676,0.11221891472416012,-0.5199443994309318,0.1994065205858199,-0.5112814552041552,Hook,-1.1739044189453125,-0.7299346923828125,-0.34857177734375
357,23.98,-1.4077350510446658,0.09585538949003736,-1.5551167148171414,0.1666160271789653,-0.6060993088571658,,-0.8016357421875,-0.68841552734375,-1.4225921630859375
358,24.03,-1.4129016685154983,-0.06385833823684517,-1.387212182369611,0.2876607032693412,-0.6722705649998734,,-0.740631103515625,-0.7728729248046875,-1.17425537109375
359,24.079,-1.3197586094865494,-0.2954317808303041,-0.47834393391870444,0.2595035930261287,-0.7692367589006119,,-0.5505218505859375,-0.912506103515625,-0.312530517578125
360,24.129,0.022685341558935507,0.1493931461038528,0.21692275241235903,-0.8235830263864852,0.085810951910498,,-0.0631256103515625,-0.41571044921875,-0.6036224365234375
361,24.179,0.3117134815004997,0.19210454818297318,0.039315931120707304,-0.8295176097731876,-0.0460440868588753,,0.357757568359375,-0.36578369140625,-0.7893218994140625
362,24.229,-0.13157768796278013,0.10973743789083124,0.06397024614506264,-0.503616902438564,-0.7194530541737176,,0.5878753662109375,-0.49029541015625,-0.2858123779296875
363,24.279,0.026438611374975496,-0.017367513393911738,-0.006690657591006399,-0.3594866223912275,-0.8177081171406495,,0.844146728515625,-0.5545196533203125,-0.213623046875
364,24.329,0.12342928178712553,-0.4345841359764444,0.08547731729942681,-0.4220046730377889,-0.8024587797363121,,0.9258880615234376,-0.975555419921875,-0.1663360595703125
365,24.379,0.048094199071087806,-0.9598471536664628,-0.19145733273684107,-0.4315218795498556,-0.7227187892101622,,0.77081298828125,-1.5833282470703125,-0.4897003173828125
366,24.468,0.05662064217953422,-1.2957005514304583,-0.38685012698911425,-0.4159509483127957,-0.6494950804767158,,0.70611572265625,-1.9871673583984375,-0.703125
367,24.518,0.7386411216893488,-0.7915492020808618,-0.8791712577984259,-0.3738732324119956,-0.5873934242090887,,1.3260345458984375,-1.5421600341796875,-1.1817474365234375
368,24.568,0.8936952810655517,-0.6613320863018544,-0.6294182052814239,-0.2056558195275526,-0.5530057687391358,,1.4467010498046875,-1.4766998291015625,-0.8007659912109375
369,24.837,-2.673010847632271,0.6323548472383012,0.13927956102975822,-0.2097665510654763,-0.626959822241646,,-2.046051025390625,-0.129364013671875,-0.024139404296875
370,24.887,-1.7658487189981706,0.048909926935426395,-0.4215936136703572,-0.297764975292372,-0.6883951057169206,Hook,-1.07745361328125,-0.643524169921875,-0.6375732421875
371,24.937,-1.5863160261486333,0.15260308291977942,-1.2785488878620672,-0.3359102131934861,-0.7616089948986333,,-0.82470703125,-0.4577789306640625,-1.4962310791015625
372,24.987,-1.3280374826198704,-0.04298972832601866,-0.76460035445661,-0.3687349206681389,-0.8178903878933078,,-0.5101470947265625,-0.57781982421875,-0.9767608642578124
373,25.036,0.005599782907326101,0.02222185929275744,0.024724965978777713,-0.7437518196668201,0.1661069850557636,,-0.1605072021484375,-0.6369476318359375,-0.7086944580078125
374,25.086,0.008468320622160803,0.10863534610979353,0.09580596985224454,-0.6614323911531627,0.0583645608565358,,-0.049896240234375,-0.6400909423828125,-0.5644989013671875
375,25.136,-0.0014644129299360986,-0.026510450322248413,-0.02849713239477536,-0.7321676473543561,0.0375980870700639,,-0.0390625,-0.7071533203125,-0.7601470947265625
376,25.186,-0.034102846945752,0.06727389711644571,0.05066930908561895,-0.6016240974048175,-0.375319887961377,,0.341217041015625,-0.6731109619140625,-0.5069732666015625
377,25.236,-0.029962668672425308,0.09045330810963514,0.022888932519650906,-0.2453147071669842,-0.3057500221880503,,0.275787353515625,-0.8325653076171875,-0.2106781005859375
378,25.286,-0.014723531115865107,0.02808928848610648,0.01439262194266161,-0.4560120373323393,-0.4227588094361776,,0.4080352783203125,-0.7784423828125,-0.39886474609375
379,25.335,0.01334941533025552,-0.03060082759004923,-0.0075630862050009295,-0.2399334905529459,-0.3899708971697445,,0.4033203125,-0.924530029296875,-0.2285003662109375
380,25.385,0.01466078776981422,-0.027136401765843643,-0.008617113219741457,-0.3026551497918926,-0.4577970979723733,,0.4724578857421875,-0.8744964599609375,-0.2776947021484375
381,25.435,0.1831943082422826,-0.285867985194765,0.2109373795295909,-0.2916955685257458,-0.4386776399999049,,0.6218719482421875,-1.1454315185546875,-0.0511932373046875
382,25.485,0.5177646015923976,-0.6332889047783674,0.4601934282345305,-0.2788308508394736,-0.367016282196665,,0.8847808837890625,-1.526611328125,0.2008209228515625
383,25.615,1.3325879809466195,-1.0997742505165506,-0.7349182517338405,-0.20450960299839,-0.1916124585065055,,1.524200439453125,-2.0605010986328125,-0.935638427734375
384,25.664,1.6405937961292887,-0.14044696113694422,-2.259705289236174,-0.1096708172138578,-0.1170813747691488,,1.7576751708984375,-1.1275787353515625,-2.368621826171875
385,25.904,-2.20634282669281,0.8387347364545717,0.01819667998437452,-0.1072217899576365,-0.2050763472006226,,-2.0012664794921875,-0.134368896484375,-0.0867462158203125
386,25.954,-0.9934620289415874,0.6631960945597611,-1.2479184741752614,-0.1894610050962695,-0.3188557056993999,Hook,-0.6746063232421875,-0.2674407958984375,-1.427490234375
387,26.003,-0.7058587176058935,0.4099109395568351,-1.4288197740758621,-0.2389183746098417,-0.435640822098081,,-0.2702178955078125,-0.464141845703125,-1.6438751220703125
388,26.053,-0.3420031529780212,0.1595579597765423,-0.8118710014278696,-0.1675555159248154,-0.5140154820795837,,0.1720123291015625,-0.68609619140625,-0.955596923828125
389,26.103,0.013267573012656575,-0.018943464789599962,-0.007229966323769321,-0.3565727344606927,-0.5475387014014059,,0.5608062744140625,-0.80072021484375,-0.30560302734375
390,26.153,0.028929316093607604,-0.03291863018290786,-0.0061132843945437,-0.1825871269912373,-0.6537946829298299,,0.6827239990234375,-0.7768707275390625,-0.1442718505859375
391,26.203,0.059374409413262,-0.06799042174468573,-0.0023580931373478956,-0.0346618845723876,-0.657544535899238,,0.7169189453125,-0.820953369140625,-0.028472900390625
392,26.253,-0.005221151235298982,0.004658111791087882,0.0015100194238455156,-0.3083717387800805,-0.729403280141549,,0.72418212890625,-0.646087646484375,-0.209442138671875
393,26.302,0.006757839804168386,-0.014588829893089628,0.00332469549633177,0.2221963372404616,-0.4116076387114566,,0.418365478515625,-0.903167724609375,0.2058258056640625
394,26.352,0.07279134222355571,-0.025679136057720653,0.2369683520161404,0.1953841704199826,-0.3974235015264443,,0.47021484375,-0.925628662109375,0.416259765625
395,26.402,0.08738319924848315,-0.4351259143218197,0.3291401099463614,0.1164402208085636,-0.3626747841499544,,0.4500579833984375,-1.3607025146484375,0.437652587890625
396,26.452,0.4174050485482343,-0.8473798979386957,-0.08506073478555119,0.0403817763644405,-0.3059683645377032,,0.7233734130859375,-1.79864501953125,-0.0466156005859375
397,26.532,1.1174836600565414,-0.9702250346019754,-0.48046024586596936,0.018503542692458,-0.2522215401387712,,1.3697052001953125,-1.9377288818359375,-0.462554931640625
398,26.582,1.8744080924157722,0.12217892808460773,-1.4890988180450937,-0.028242545498204,-0.1716887093420402,,2.0460968017578125,-0.862579345703125,-1.5169219970703125
399,26.631,1.5334872167946338,0.2998763724539971,-1.8843042632113467,0.1330654548949324,-0.0839902001975537,,1.6174774169921875,-0.6877288818359375,-1.751708984375
400,26.861,-2.4183859631900555,0.9940398133129863,-0.1563908665284104,0.172733888584389,-0.1494040295963057,,-2.26898193359375,0.0201263427734375,0.014404296875
401,26.91,-1.1404457176581613,0.45393964777543905,-1.9424012224754454,0.097311963833452,-0.2424202049628488,Hook,-0.8980255126953125,-0.511627197265625,-1.847991943359375
402,26.97,-1.029205827131737,0.1368202765612806,-2.1573676119126053,0.1872628974025394,-0.3233342451004871,,-0.70587158203125,-0.792724609375,-1.98016357421875
403,27.02,-0.5876118869691881,-0.009144047122306764,-0.9488279136202407,0.2493480627121373,-0.4127461643129381,,-0.17486572265625,-0.8912200927734375,-0.721710205078125
404,27.07,-0.007080668170271587,0.0248676065376926,0.013333345764165172,-0.4725356839969741,-0.2433935343812091,,0.2363128662109375,-0.8299407958984375,-0.4449920654296875
405,27.12,0.007081152808699254,-0.0054406474939046046,-0.005064633752092429,-0.681361113397873,-0.6897572260975507,,0.69683837890625,-0.535400390625,-0.4983978271484375
406,27.17,-0.12903845974501305,0.17315521419713176,-0.0014961955401499765,0.008640454143841,-0.5975290603309505,,0.4684906005859375,-0.628662109375,0.00543212890625
407,27.22,-0.03151760651409585,0.027142935909938104,-0.010561743840535237,0.3626298992390535,-0.7344289834672209,,0.702911376953125,-0.6053466796875,0.2355499267578125
408,27.269,-0.12067265817544448,-0.2611804895646558,-0.016133155445792025,0.3505476755945365,-0.7269653827848195,,0.606292724609375,-0.9042816162109376,0.224578857421875
409,27.319,0.05076927436714107,-0.4553185532873768,0.020247194484587033,0.3273684272689615,-0.7051663945781714,,0.7559356689453125,-1.1252899169921875,0.2523651123046875
410,27.369,-0.17126630027300593,-0.631904510710654,0.21088192166511044,0.2749676911472458,-0.6546799965620684,,0.4834136962890625,-1.358673095703125,0.418731689453125
411,27.419,0.059007681380381816,-0.49095187922807704,0.04862346411067056,0.2022685674603745,-0.5989207854164932,,0.657928466796875,-1.27520751953125,0.210601806640625
412,27.469,-0.042248023900796294,-0.7039910328701307,0.3472966791584729,0.1513508237869477,-0.5305903090570463,,0.48834228515625,-1.5418548583984375,0.4755859375
413,27.519,0.7670151819166255,-0.3801984728331159,-0.7681824925381405,0.064707601284657,-0.4543898473802494,,1.221405029296875,-1.269134521484375,-0.710540771484375
414,27.568,1.4457317006464279,-0.36312897691176105,-1.4281208577114333,0.1076745672758599,-0.3363880503301346,,1.7821197509765625,-1.29937744140625,-1.32672119140625
415,27.718,-2.2233192230050367,2.361904227281111,-0.8075501607578455,0.0177068441731001,-0.2597419524972241,,-1.9635772705078125,1.3963775634765625,-0.7904510498046875
416,27.867,-2.3066123882582716,0.6853811307090684,-1.177174349622524,0.0240517495410666,-0.298693076734834,,-2.0079193115234375,-0.2686920166015625,-1.1542205810546875
417,27.917,-1.3799216758469381,0.1843790971237279,-1.404089620671013,-0.0720492075901876,-0.4604117881516258,Hook,-0.9195098876953124,-0.701019287109375,-1.468048095703125
418,27.967,-0.7396227113767254,0.4602134173190867,-1.3338637772848094,-0.092744174513994,-0.6153856508298504,,-0.124237060546875,-0.324615478515625,-1.4069671630859375
419,28.017,-0.3625083920811225,0.40275845264290866,-0.7092773513242224,-0.0628237276335805,-0.7175193784092475,,0.355010986328125,-0.2924041748046875,-0.7530364990234375
420,28.067,-0.17219069627196998,0.3149471602066438,0.06186696235552283,-0.1927523284701572,-0.4727430644360325,,0.3005523681640625,-0.5497283935546875,-0.1079864501953125
421,28.117,-0.02693891708822088,0.0316759222028693,0.04495625887856569,-0.8174636459586262,-0.4399027842757209,,0.4129638671875,-0.4855804443359375,-0.6891632080078125
422,28.166,0.04211805816222569,-0.04984525731104983,-0.03805618787456366,-0.6068384294861436,-0.5575370932049618,,0.5996551513671875,-0.7096710205078125,-0.5418243408203125
423,28.216,-0.09286675976711434,-0.25314685890052246,-0.2972721407679364,-0.6039743360766618,-0.6058062128921143,,0.512939453125,-0.8872528076171875,-0.777801513671875
424,28.266,-0.12914503912013564,-0.3931780820921631,-0.17905901289933274,-0.610156081865391,-0.6226753125576356,,0.4935302734375,-1.01312255859375,-0.656494140625
425,28.316,-0.15452817082171533,-0.26868615360098547,-0.09372468123554051,-0.5757990443533876,-0.6105523407435903,,0.456024169921875,-0.91619873046875,-0.54974365234375
426,28.366,0.005878928081033713,-0.03115127705741616,-0.005561572542829685,-0.175755250911601,-0.1826586695752163,,0.18853759765625,-0.9990234375,-0.1783599853515625
427,28.416,0.2661789734029777,-0.25066523291139764,0.19613072256319997,-0.1761783649009699,-0.1354476135110848,,0.4016265869140625,-1.2259521484375,0.021575927734375
428,28.466,0.6446324427319019,-0.5432565411628868,0.2906246052245643,-0.1827695947173453,-0.0356501500415356,,0.6802825927734375,-1.525787353515625,0.10797119140625
429,28.884,-2.0651167568191275,0.38043736840449194,-0.23601888211557012,-0.2219204327321381,-0.1095350917800651,Hook,-1.9555816650390625,-0.5887603759765625,-0.45660400390625
430,28.934,-1.4459691603914946,0.20561881621676636,-0.835607666242321,-0.2432863573914905,-0.2395940383211821,,-1.2063751220703125,-0.736083984375,-1.071807861328125
431,28.984,-0.6868380034192847,0.5646032893101341,-1.274293498814748,-0.3147834936562047,-0.4068697417005347,,-0.27996826171875,-0.3024444580078125,-1.5618438720703125
432,29.034,-0.3457301414303037,0.2696041257494929,-0.8260467360305124,-0.3109857857084795,-0.5327876365474912,,0.1870574951171875,-0.5346832275390625,-1.0892181396484375
433,29.084,-0.05282118123421781,0.07667637961995966,0.05253806057956306,-0.5652354026854478,-0.4940748433435928,,0.441253662109375,-0.640533447265625,-0.4388885498046875
434,29.133,-0.08680726840220432,0.14435590670872656,0.022693873385832758,-0.1553004350365835,-0.5107269461365793,,0.423919677734375,-0.7049560546875,-0.1108245849609375
435,29.183,-0.03201525473101974,0.033984918809711995,0.014072381563014102,-0.3825759276199931,-0.6565269734810197,,0.62451171875,-0.662933349609375,-0.274505615234375
436,29.233,0.028257519544274023,-0.053524951125058506,-0.009171832964250587,-0.1688945325124797,-0.4615953857291635,,0.4898529052734375,-0.9278717041015624,-0.15899658203125
437,29.283,0.009178421596310604,-0.09429648683862313,-0.22776694041359533,-0.198016088169102,-0.4655530237161894,,0.4747314453125,-0.9617919921875,-0.40301513671875
438,29.333,0.1256592398414878,-0.08005882651107687,-0.20288968814633146,-0.1979915500903412,-0.4682128304710122,,0.5938720703125,-0.9461822509765624,-0.377838134765625
439,29.383,-0.039444229970165,-0.26256402036933624,-0.07048279159435519,-0.1710270246564441,-0.452224991688915,,0.41278076171875,-1.141326904296875,-0.2230224609375
440,29.432,0.200677464945413,-0.41443490997141286,-0.07111708861906038,-0.1790795970396042,-0.426489283101462,,0.627166748046875,-1.3043060302734375,-0.23309326171875
441,29.482,0.6448761944362804,-1.000011607695733,0.07610331813539742,-0.1487228494995788,-0.3585875506809071,,1.0034637451171875,-1.923126220703125,-0.0627288818359375
442,29.821,-2.770959513426406,0.3716674598597568,0.9427682673739708,-0.1449598968409461,-0.3848816325670307,,-2.386077880859375,-0.5415496826171875,0.8089752197265625
443,29.871,-1.5269449127197723,0.27992920761246365,-1.3500747852922217,-0.2082736958045858,-0.3955057037353973,Hook,-1.131439208984375,-0.6183929443359375,-1.5413665771484375
444,29.921,-1.3355232995492812,0.050675217537973105,-0.8888650351061569,-0.201985444730364,-0.4163643640024062,,-0.919158935546875,-0.83978271484375,-1.072509765625
445,29.971,-0.01896388972136598,-0.03325979451606542,-0.02167889624573388,-0.5460508572199185,0.431017799731759,,-0.449981689453125,-0.7891998291015625,-0.514404296875
446,30.021,-0.008302412716845009,-0.029521039047302966,-0.021644235386620858,-0.5912832469809253,0.221189774783155,,-0.2294921875,-0.816009521484375,-0.5982818603515625
447,30.07,-0.019343536982125792,0.1224289229325336,0.06983464816797041,-0.4954716416296273,-0.1359664617868133,,0.1166229248046875,-0.738128662109375,-0.4210357666015625
448,30.12,-0.039348436899943884,0.10685036407044635,0.018416851065971296,-0.1698565307424708,-0.3411367669780689,,0.301788330078125,-0.8195037841796875,-0.1412506103515625
449,30.17,-0.0443016766615516,0.07808839349140029,0.010237572250731061,-0.1299899912115144,-0.4902703045912391,,0.4459686279296875,-0.7860870361328125,-0.103057861328125
450,30.22,-0.011597818486169198,0.02008230561347235,0.011523585308491846,-0.4977003556720907,-0.4478618565721067,,0.4362640380859375,-0.7554168701171875,-0.4334716796875
451,30.27,0.021503213856660097,-0.0348085092179341,-0.010623195356820325,-0.2918983987456566,-0.5086939296980274,,0.5301971435546875,-0.8582611083984375,-0.261932373046875
452,30.32,-0.07420004432959437,-0.2347368738942993,0.16519214888942202,-0.3276698457330079,-0.5281337601499069,,0.4539337158203125,-1.037017822265625,-0.1130523681640625
453,30.369,-0.06355967440969734,-0.43246466928178584,0.2545918431182696,-0.4018523770540784,-0.5315619937456348,,0.4680023193359375,-1.2080841064453125,-0.085784912109375
454,30.419,0.1750373444817882,-0.8059460617023757,0.38213018432560647,-0.4370901189889851,-0.4898338713385243,,0.6648712158203125,-1.5900726318359375,0.001068115234375
455,30.469,0.4837141436467354,-1.0520250197692733,0.22480855045130443,-0.4698104616214123,-0.3970841961970146,,0.88079833984375,-1.862213134765625,-0.2063751220703125
456,30.519,1.7374297219578303,-0.9210931415129272,-0.3759340912292219,-0.4718386184913796,-0.3056305807765447,,2.043060302734375,-1.760589599609375,-0.8251953125
457,30.828,-2.8055935190286094,1.6354657243431725,0.7599831508510513,-0.4478501191707964,-0.4778042123879846,,-2.327789306640625,0.8500213623046875,0.3665618896484375
458,30.878,-1.8957443798506919,0.9919790067096518,-0.4952997399506219,-0.4481371800651149,-0.6365280712569419,,-1.25921630859375,0.3025054931640625,-0.8409271240234375
459,30.928,-1.4445276039293562,0.31699012023479056,-1.0721649309512262,-0.5274557326118519,-0.7679528968981062,Hook,-0.67657470703125,-0.2271728515625,-1.410003662109375
460,30.978,-1.2161864579189934,-0.2688682959149784,-0.7274093974809663,-0.5589261849083115,-0.8498381913174308,,-0.3663482666015625,-0.705902099609375,-1.0219879150390625
461,31.027,-1.1406878435685268,-0.5951783655225542,-0.27067883638474555,-0.5235675916282138,-0.9010790789200892,,-0.2396087646484375,-0.9646453857421876,-0.4977264404296875
462,31.077,-0.015946726857453603,0.1128513132943233,0.017017923988082634,-0.1491135933188889,-0.1383832502949536,,0.1224365234375,-0.866455078125,-0.1306610107421875
463,31.127,0.3022729577217862,0.1307537343220807,-0.39804469492320993,-0.1657700170169329,-0.2368658362235263,,0.5391387939453125,-0.8273468017578125,-0.5590972900390625
464,31.177,0.01878975722354731,0.026470811633283686,-0.4606793619727443,-0.1532480769966729,-0.2954497447295777,,0.314239501953125,-0.9176025390625,-0.607086181640625
465,31.227,0.01783479869621199,-0.06028120912602264,-0.03530530777578689,-0.5053790498189662,-0.247362955210038,,0.26519775390625,-0.8963623046875,-0.5249786376953125
466,31.277,0.009218444747175203,-0.03187190605220558,-0.02268235001010921,-0.5798273661555855,-0.2293679810340748,,0.23858642578125,-0.82489013671875,-0.5870513916015625
467,31.326,-0.012393937957047602,0.10452806570439499,0.028731061844338268,-0.2650350754570873,-0.1135902270195476,,0.1011962890625,-0.8534698486328125,-0.234588623046875
468,31.376,-0.03965559076969061,0.18069747748788045,0.05025164568606716,-0.2679304574257519,-0.2068614013165656,,0.167205810546875,-0.76190185546875,-0.211883544921875
469,31.426,-0.004273291605224688,0.0554010710609294,0.00011670754383991122,-0.0021065889638485,-0.0769051275427247,,0.0726318359375,-0.9416351318359376,-0.001983642578125
470,31.476,0.3127251797324694,-0.1661672947706786,0.03256812881136835,-0.0769577834209474,-0.0935553378456556,,0.406280517578125,-1.1588287353515625,-0.0440521240234375
471,31.526,0.9122302941462002,-0.860224941081288,-0.4552674990477959,-0.1233180836831579,-0.0723583289006749,,0.984588623046875,-1.8499908447265625,-0.5782623291015625
472,31.915,-2.2844585110850817,0.6526813795875385,-0.6663683231271027,-0.1550372191149313,-0.1754649808116444,,-2.1089935302734375,-0.3199005126953125,-0.819000244140625
473,31.964,-1.0797122186835475,0.7205645435664008,-1.2456801898558592,-0.1986814886718924,-0.3296206659491725,Hook,-0.750091552734375,-0.2047271728515625,-1.433258056640625
474,32.014,-0.9011600285191765,0.478052223267885,-1.0922744488741265,-0.1835302795878284,-0.4482639103551141,,-0.4528961181640625,-0.400665283203125,-1.2563323974609375
475,32.064,-0.9054969326298428,0.16263000015421247,-0.6716179550185495,-0.1627751867321856,-0.5428718105595303,,-0.3626251220703125,-0.665985107421875,-0.808319091796875
476,32.114,-0.026077385054537994,0.11010027703343184,0.130053211021535,-0.7632263721417658,-0.1512757493123505,,0.1251983642578125,-0.528594970703125,-0.6243896484375
477,32.164,-0.03324013389725411,0.08464459313350448,0.08983983171544085,-0.7278381862189753,-0.2600315157331916,,0.2267913818359375,-0.5775146484375,-0.6129608154296875
478,32.214,0.16174280354725862,0.18211752541331494,-0.025518769831368804,-0.718264837569302,-0.3804935245777414,,0.542236328125,-0.4613189697265625,-0.68975830078125
479,32.263,-0.03589723131120648,0.038734329866504824,0.027697513317482658,-0.5816571605951494,-0.6019677879518315,,0.566070556640625,-0.610809326171875,-0.436767578125
480,32.313,0.2671247737477832,-0.008766464274290287,0.17190622557445734,-0.588188393443105,-0.6699174625803418,,0.937042236328125,-0.60919189453125,-0.2647857666015625
481,32.363,0.08733089563116869,-0.279549546402155,0.062470036285892594,-0.5979458383993106,-0.6977032840563313,,0.7850341796875,-0.853759765625,-0.3658905029296875
482,32.413,0.0557185692615314,-0.5176298727094686,0.2744786784862546,-0.595355129056815,-0.7015293555431561,,0.7572479248046875,-1.0902099609375,-0.1497955322265625
483,32.463,-0.14832322530882602,-0.5601353858039659,0.28555957644684926,-0.6124837284933167,-0.6881944411291385,,0.5398712158203125,-1.1336517333984375,-0.1588134765625
484,32.513,-0.13471542689768956,-0.49283781393526127,0.21139371611184393,-0.6204905551249845,-0.6548112520930021,,0.5200958251953125,-1.085540771484375,-0.257568359375
485,32.563,-0.3999993306491515,-0.4788692295647934,0.36098027621988626,-0.6097773283830377,-0.612172792563214,,0.2121734619140625,-1.1055755615234375,-0.121185302734375
486,32.612,-0.5065189465463512,-0.5333279781104597,0.5812923429220743,-0.6330507082104375,-0.5565830334604137,,0.0500640869140625,-1.17645263671875,0.05535888671875
487,32.662,-0.1289042305091504,-0.6515948866628795,0.530301045936979,-0.6694087248308694,-0.4994486641029004,,0.37054443359375,-1.295196533203125,-0.0496368408203125
488,32.762,1.2113101333237335,-1.348567682966279,-0.2567659021851463,-0.6240625263658863,-0.5007870346450166,,1.71209716796875,-2.02490234375,-0.79693603515625
489,33.019,-3.26244250216039,0.4142741698048018,0.8269260957146396,-0.5722942016987416,-0.5327824679807023,,-2.7296600341796875,-0.279693603515625,0.342620849609375
490,33.071,-1.8376259689432528,-0.03942877802496303,0.19947693146416118,-0.4927515856106061,-0.5939431076151277,,-1.243682861328125,-0.7394866943359375,-0.1969451904296875
491,33.121,0.011781041351002108,0.028211953120913624,0.01910510086944628,-0.5607229632930056,0.3267834827572521,Hook,-0.31500244140625,-0.75433349609375,-0.510833740234375
492,33.171,-0.2377538620532822,-0.08117821383218193,-0.31071016818890385,-0.6119815327998016,0.2872705520092178,,-0.5250244140625,-0.838714599609375,-0.8968963623046875
493,33.22,-0.0014000161543294976,-0.004326135587033431,-0.0001115784686758041,-0.0257831436922895,0.3078040854081705,,-0.3092041015625,-0.9554595947265624,-0.0246429443359375
494,33.27,-0.036131357476788806,-0.07530677472528668,-0.009057674355679932,-0.1194163483506992,0.4300551659607112,,-0.4661865234375,-0.971649169921875,-0.1168670654296875
495,33.32,0.014324980884940108,0.09297963275278387,0.015769868320037794,-0.1672175765721259,0.1501739799083776,,-0.1358489990234375,-0.8817596435546875,-0.1495513916015625
496,33.37,-0.004170248053461806,-0.020083867445226167,-0.010975998516219776,-0.4795645632026113,0.1792556552668507,,-0.1834259033203125,-0.8833770751953125,-0.4827728271484375
497,33.42,0.000340252808287797,0.006302808187565234,0.002606611399661285,-0.3821706273671135,0.0498245057379753,,-0.0494842529296875,-0.9166412353515624,-0.37908935546875
498,33.47,-0.007799045955992304,-0.06184108586850323,-0.03630246980331708,-0.506246631227196,0.1081219745518202,,-0.1159210205078125,-0.9191741943359376,-0.539581298828125
499,33.519,-0.0021382194010603,0.050900630775441824,0.02886643644147885,-0.4933067712924757,-0.0365162711588728,,0.0343780517578125,-0.8183746337890625,-0.464111328125
500,33.569,0.0011359302494041018,0.03186622119942528,0.016426993316844773,-0.4582003971228301,0.0316687671634666,,-0.0305328369140625,-0.856536865234375,-0.4415435791015625
501,33.619,-0.0010333092973211014,-0.015844510019344837,-0.007035463604900705,-0.4058233830548416,0.0594983069136164,,-0.0605316162109375,-0.9281768798828124,-0.412139892578125
502,33.669,-0.0017639400843890013,-0.03884321695278192,-0.020267363905661473,-0.4625900052626851,0.040228247415611,,-0.0419921875,-0.9246978759765624,-0.48248291015625
503,33.719,0.0012606914237974012,-0.019014662902956947,-0.009324425001508707,-0.4402909102106054,-0.0594235126777651,,0.0606842041015625,-0.915283203125,-0.4488372802734375
504,33.769,0.0028860010639051997,-0.04453524861098945,-0.02493062631573517,-0.4884674389858734,-0.0564554296001573,,0.0593414306640625,-0.9157257080078124,-0.5126190185546875
505,33.819,-0.0031781186690901034,0.04415163288519908,0.026743964301793266,-0.5180948289206592,-0.0614514340987776,,0.0582733154296875,-0.8095550537109375,-0.4903717041015625
506,33.868,-0.009627597080254291,0.0530543453254636,0.02159152367089484,-0.376949343678102,-0.1657555267677543,,0.1561279296875,-0.8603668212890625,-0.3501434326171875
507,33.918,-8.857953379509675e-05,0.0004979173458558028,0.00019107493546000054,-0.3582737731825833,-0.1638459037525451,,0.16375732421875,-0.920501708984375,-0.353240966796875
508,33.968,-0.005351191172030506,0.029886982702374,0.010092618901366923,-0.3199426269205178,-0.1672469431251555,,0.161895751953125,-0.904205322265625,-0.3053436279296875
509,34.018,0.0029013706375612958,-0.04054174094338314,-0.018245182694794138,-0.4103908509113483,-0.0651223110030637,,0.068023681640625,-0.9505157470703124,-0.427764892578125
510,34.068,0.0010648468027006017,-0.020702088213592984,-0.010397041061898926,-0.4488013032388386,-0.0459169647207369,,0.0469818115234375,-0.91339111328125,-0.4587249755859375
511,34.118,-0.0009303674414323955,0.03532097984841398,0.01694451150188725,-0.4325327455038575,-0.0237422570898699,,0.0228118896484375,-0.8660430908203125,-0.41546630859375
512,34.167,-0.0004850782024291081,-0.007378802378269711,-0.0034730758475213785,-0.4258671319430118,0.0593751512897584,,-0.0598602294921875,-0.9105682373046876,-0.4285888671875
513,34.217,-0.00014109919661330073,0.004886773926116916,0.002212310274088858,-0.4124196075763324,-0.0262946636497383,,0.026153564453125,-0.905792236328125,-0.410064697265625
514,34.267,-0.0019647712023046007,-0.04556100334972113,-0.024810790353056555,-0.4782478880744761,0.0378454094617579,,-0.0398101806640625,-0.92315673828125,-0.502716064453125
515,34.317,-0.0001808894048233034,0.0023411737538681088,0.0012111707791558346,-0.4594884158779198,-0.0684639704595108,,0.0682830810546875,-0.883758544921875,-0.4571990966796875
516,34.367,-0.0051397997620730995,-0.04825804722062743,-0.02317738189679075,-0.4329362979203466,0.0955682080504269,,-0.1007080078125,-0.945556640625,-0.454132080078125
517,34.417,0.003216116185812107,0.04553326036437477,0.0236248123417947,-0.4605471971761112,0.0625728056389371,,-0.059356689453125,-0.840362548828125,-0.4360198974609375
518,34.466,0.017200371385691887,0.10421502463326904,0.034480850954816844,-0.3141158492843939,0.1548041311513169,,-0.137603759765625,-0.8337249755859375,-0.275848388671875
519,34.516,0.0318259779978223,0.15226080287830457,0.048636226645290104,-0.3042806434253048,0.1952781264353223,,-0.1634521484375,-0.781982421875,-0.249786376953125
520,34.566,0.03961281532872257,0.1357608509202568,0.029930714075103282,-0.2152962520476771,0.2740335916959101,,-0.2344207763671875,-0.80340576171875,-0.1771240234375
521,34.616,-0.4335268199421847,-0.10482657690255459,0.16732920758726047,-0.209687263824976,0.2745267689250028,,-0.7080535888671875,-1.0450286865234375,-0.0343017578125
522,34.666,-0.003671707011154497,0.09472969515266338,0.03699020085907906,-0.3637346131221868,-0.0360813749799045,,0.03240966796875,-0.8361663818359375,-0.326507568359375
523,34.716,0.4398987984694325,-0.1425633031765423,-0.338257384016761,-0.0758221255467022,-0.0876280569993175,,0.52752685546875,-1.1358489990234375,-0.413787841796875
524,34.766,1.058044783305176,-0.905456498856555,-0.4353823589817755,0.3075012319930039,-0.065429337788574,,1.12347412109375,-1.8549652099609375,-0.1285400390625
525,34.835,0.6282345214365309,-1.147704872269412,-0.767012083804879,0.5355029214353394,-0.0211032471181566,,0.6493377685546875,-1.9920501708984375,-0.23162841796875
526,34.885,0.2720334290851007,-0.936944289836484,-0.513458714555049,0.7964514885349341,-0.1428377867352118,,0.4148712158203125,-1.5354461669921875,0.2748260498046875
527,34.935,-0.385936920897875,-1.7191204736326757,-0.6932895695770309,0.9467376932575914,-0.33671206738225,,-0.049224853515625,-2.0223236083984375,0.1981658935546875
528,34.987,-2.7040433337751657,-1.4246528364176734,-0.9788388556824696,0.9988368866996165,-0.5871304919782907,,-2.116912841796875,-1.46368408203125,-0.1702880859375
529,35.104,-2.207248768017619,2.304615572500165,0.041581008992179536,0.9731045821699814,-0.6295967904785568,Hook,-1.5776519775390625,2.125640869140625,0.797607421875
530,35.154,-1.9667349944427932,0.7669123884898918,0.011736825471237666,0.919857722452174,-0.5804740081146682,,-1.386260986328125,0.447509765625,0.7607574462890625
531,35.204,-1.7908225584083004,0.12661395580933144,0.4529343618314897,0.7877889816398695,-0.5335898923926754,,-1.257232666015625,-0.394317626953125,1.11920166015625
532,35.254,-1.2961143649526128,0.4139148030086791,0.3627234097403629,0.5530448763292074,-0.4844841159291752,,-0.8116302490234375,-0.3149261474609375,0.846527099609375
533,35.304,-1.3299152683704625,0.3059333780878648,0.15476316428441295,0.2778490186945333,-0.4721729588001501,,-0.8577423095703125,-0.540863037109375,0.399688720703125
534,35.354,0.2633504195881208,0.42010073195489916,-0.15475485862702304,0.3456678039318177,0.5070180221271833,,-0.2436676025390625,-0.388702392578125,0.1431884765625
535,35.403,0.028413390707466513,0.03923489188298257,0.06128778978576943,-0.8422045948794322,0.3637100215668415,,-0.335296630859375,-0.4629974365234375,-0.723236083984375
536,35.453,0.4605793003502181,-0.11330977656273167,0.0863743547022281,-0.9402298130398196,0.2831806187095931,,0.177398681640625,-0.439910888671875,-0.81536865234375
537,35.503,0.6926597879289501,-0.27563320565736943,0.15014634754558975,-0.977403201224991,0.1685203836320751,,0.524139404296875,-0.4839935302734375,-0.8132781982421875
538,35.553,0.7641629571019171,-0.5999081800411554,0.22643148509171318,-0.9871730249029484,0.1066464776097296,,0.6575164794921875,-0.7586517333984375,-0.7551116943359375
539,35.603,0.7494942421847933,-0.842425699676495,0.34138744216014405,-0.98771156184639,0.0516793007785433,,0.69781494140625,-0.998504638671875,-0.6450042724609375
540,35.653,0.7638201176757727,-1.0146514304702985,0.16766326163216838,-0.9872788777838456,0.0374254643554602,,0.7263946533203125,-1.1735382080078125,-0.8189239501953125
541,35.703,0.9755462014196319,-1.1209585898969665,0.6188951746065858,-0.966747044146194,0.0617278420446319,,0.913818359375,-1.3762054443359375,-0.34600830078125
542,35.752,0.9844370358943051,-1.2251667463869906,0.7121692931296236,-0.9542646675122454,0.1433573239802426,,0.8410797119140625,-1.5210418701171875,-0.23223876953125
543,35.802,1.68818650355153,-1.0775336714575288,0.10012015121077988,-0.9493880592000464,0.2280577193718425,,1.4601287841796875,-1.38336181640625,-0.824249267578125
544,35.852,2.232744574497154,-0.5630445638756492,-0.5451136831733434,-0.9363722122692166,0.2847617864112167,,1.9479827880859375,-0.8995208740234375,-1.442718505859375
545,36.121,-1.824082325406013,-0.11101168097695185,0.9029026710226491,-0.897414643053423,0.234175731234612,,-2.058258056640625,-0.5399322509765625,0.0304412841796875
546,36.171,-0.7228757702657433,-0.18320320249754646,-0.10199718749770958,-0.8808192959276168,0.1327455676248816,Hook,-0.855621337890625,-0.6524658203125,-0.9750213623046876
547,36.221,-0.5735171087194642,-0.3387462040939194,-0.4134529683583512,-0.8557092673509594,0.0575101129602234,,-0.6310272216796875,-0.8553466796875,-1.2677459716796875
548,36.271,0.010382103511642593,0.06749393942989157,0.03681475938671119,-0.4788509611585065,0.1338257070272676,,-0.123443603515625,-0.8025054931640625,-0.4377288818359375
549,36.321,-0.06466911694953148,0.12642723442427595,0.09302406145849751,-0.5926503573644573,-0.380938037847969,,0.3162689208984375,-0.6183013916015625,-0.4549407958984375
550,36.37,0.308673368365921,0.21014549843303276,0.08191328296242784,-0.5919623678162197,-0.478405489055954,,0.787078857421875,-0.4976043701171875,-0.4379119873046875
551,36.42,0.28316632619019266,0.23557586727439916,0.03798518582324534,-0.602728867827596,-0.5752168525207448,,0.8583831787109375,-0.417144775390625,-0.455047607421875
552,36.47,0.004124792442909642,-0.0043972327767681785,-0.00032473056264300387,-0.0736482921897471,-0.6831615845102154,,0.687286376953125,-0.7326812744140625,-0.054107666015625
553,36.52,0.073881681909017,-0.11990642231717585,0.1611797345469787,-0.0543752257575844,-0.703645173559733,,0.77752685546875,-0.82940673828125,0.1225433349609375
554,36.57,0.06490948825936738,-0.39161134235227935,0.22325314782031963,-0.0547351478011933,-0.6961683926000076,,0.761077880859375,-1.1084136962890625,0.1839599609375
555,36.62,0.16570395831931417,-0.5947119074266651,0.08609313434864926,-0.102399396543932,-0.6785953580869358,,0.84429931640625,-1.3253631591796875,0.0108795166015625
556,36.669,0.26435340637871585,-0.6166337096499759,-0.3536071960787488,-0.1591190855730444,-0.6600240350275342,,0.92437744140625,-1.358306884765625,-0.47314453125
557,36.719,0.43750471253530654,-0.42451015976991535,-0.5601741247889472,-0.213045789599809,-0.626231249378756,,1.0637359619140625,-1.186248779296875,-0.7262725830078125
558,36.769,0.6188680558477302,-0.10245464210641075,-0.3026546742004659,-0.1528864721279217,-0.5709055037225823,,1.1897735595703125,-0.913818359375,-0.4281768798828125
559,36.819,0.6525353696478242,-0.15084875024780975,-0.21364494990829913,-0.0720234723188702,-0.4754248354303008,,1.127960205078125,-1.0283203125,-0.277008056640625
560,36.869,0.8479648869320029,0.20700014384739684,-1.4292562447426111,-0.0770153327175123,-0.3998378474429971,,1.247802734375,-0.7068634033203125,-1.499847412109375
561,37.021,-4.529206117804405,1.6334311598162672,-3.014133804621525,-0.195091699138157,-0.0817573873356551,,-4.44744873046875,0.6559295654296875,-3.2085723876953125
562,37.128,-2.246153306565463,0.8576234999662758,-0.3432353851933124,-0.1666957007120356,-0.1328567977764002,,-2.1132965087890625,-0.1196441650390625,-0.508453369140625
563,37.178,-0.9728985998311438,0.45770809761136344,-1.144147003532133,-0.299438380661106,-0.2489453527608313,Hook,-0.7239532470703125,-0.46636962890625,-1.4341583251953125
564,37.228,-0.9949856293596463,0.04089058095683373,-0.9999500513913311,-0.3610127883138545,-0.3545589936174588,,-0.6404266357421875,-0.831085205078125,-1.3375091552734375
565,37.278,-0.00016164484997349682,-0.00047627171303477045,-0.00033503982444615943,-0.5753620702031844,0.2674775153062765,,-0.26763916015625,-0.78857421875,-0.5547332763671875
566,37.327,0.002134853683719601,-0.012393106677115018,-0.020472827947311756,-0.8554693842311712,-0.0888533054959679,,0.0909881591796875,-0.5281982421875,-0.87255859375
567,37.377,0.14164003403698272,0.1283249354312999,0.10456650022851066,-0.8719988817889689,-0.2654034229942673,,0.40704345703125,-0.3436279296875,-0.7361602783203125
568,37.427,0.032911036079163625,0.07429230985027313,-0.12841064754435438,-0.8981385136515384,-0.4095175527880239,,0.4424285888671875,-0.3268585205078125,-0.947784423828125
569,37.477,0.1340803873490578,-0.1257518047990927,0.13458893555492057,-0.9028474765328558,-0.5331711995650047,,0.6672515869140625,-0.489501953125,-0.6292266845703125
570,37.527,0.13875707170986118,-0.401012575044304,0.15001646252359246,-0.9040494120002815,-0.5988222739932638,,0.737579345703125,-0.7433319091796875,-0.5740203857421875
571,37.577,0.37780654866281593,-0.7082617598263417,0.12530623425777654,-0.9018576925966344,-0.6364299015324966,,1.0142364501953125,-1.04150390625,-0.5703277587890625
572,37.626,0.3826801329312832,-0.9092006460484805,0.45611840062320297,-0.8771811040067525,-0.6273296326937168,,1.010009765625,-1.2831268310546875,-0.22698974609375
573,37.676,0.3947478615420652,-1.0372307231610018,0.7967568984994075,-0.8475041634804513,-0.5754517234188724,,0.9701995849609376,-1.4713287353515625,0.1036376953125
574,37.726,0.6772585933985573,-0.857875907281375,0.4023560767176171,-0.8572635361490187,-0.5070218021092552,,1.1842803955078125,-1.301666259765625,-0.3365478515625
575,37.776,1.4114377336332153,-1.0634477152467645,0.3147599592522765,-0.8475898575600272,-0.4179995222261596,,1.829437255859375,-1.5455169677734375,-0.455230712890625
576,38.105,-2.6073447068554536,0.2959963031173109,-0.0028616122914031372,-0.8733001190722747,-0.5202780564648284,,-2.087066650390625,-0.12005615234375,-0.7486572265625
577,38.155,-1.5214737893926418,0.1362375046579749,-0.6597802900070799,-0.8925678626544395,-0.6515549661504544,Hook,-0.8699188232421875,-0.2058258056640625,-1.336883544921875
578,38.205,-1.1038277575623892,-0.13489120791032222,-0.38723080148088596,-0.8874243937899327,-0.7439492175233268,,-0.3598785400390625,-0.4429168701171875,-0.9802398681640624
579,38.254,-1.09646414794661,-0.35284320815983805,-0.491890570808436,-0.8928171435077479,-0.8149242309544225,,-0.2815399169921875,-0.6138916015625,-1.00933837890625
580,38.304,-0.003455340070664295,0.031036430697439332,0.028825202682794204,-0.6805228493784663,-0.0813056818675393,,0.077850341796875,-0.6992645263671875,-0.649444580078125
581,38.354,-0.1693882592523518,0.16886750744188173,-0.2333139871701274,-0.7178980883752956,-0.2619328149164143,,0.0925445556640625,-0.5029754638671875,-0.9261474609375
582,38.404,0.11079780024673602,0.28025350423589035,-0.10370107684489172,-0.7306624908294214,-0.4329186304173265,,0.5437164306640625,-0.3351898193359375,-0.7623443603515625
583,38.454,-0.00959547670921812,0.007558524408298739,0.0072929498704704665,-0.6943512686593432,-0.6744819513185931,,0.664886474609375,-0.52374267578125,-0.505340576171875
584,38.504,0.37346328169373144,-0.13362463641030675,0.02054592513473047,-0.6960960983228259,-0.7355149897906436,,1.108978271484375,-0.6200408935546875,-0.4510650634765625
585,38.553,0.2864422831602086,-0.43831040903932816,-0.24321074974345275,-0.6978814892387898,-0.7430987324647914,,1.029541015625,-0.9175872802734376,-0.7102203369140625
586,38.603,0.3330239525910227,-0.6787193921096705,0.11063922110856467,-0.6814883444774548,-0.7170401343230398,,1.0500640869140625,-1.1888275146484375,-0.3643798828125
587,38.653,0.34946786606232616,-0.8395652218982564,0.06174074874590196,-0.6835010698717445,-0.6706432179220488,,1.020111083984375,-1.3810272216796875,-0.4452667236328125
588,38.703,0.8564266376886248,-0.8604486908968393,0.25327681521639345,-0.6731693239319552,-0.6046176738348127,,1.4610443115234375,-1.449462890625,-0.2829132080078125
589,38.99,-4.552252179738495,0.5189648359369153,1.0320992334538421,-0.6409197514680202,-0.6015838447775574,,-3.9506683349609375,-0.094207763671875,0.5201263427734375
590,39.042,-2.2020527979403135,0.4168036666992977,-0.13299337620513751,-0.6835774842468963,-0.6532246729403136,,-1.548828125,-0.135833740234375,-0.65057373046875
591,39.092,-1.8975064099786345,-0.36334728829731755,-0.4812399479756324,-0.7061167482138877,-0.7030789197442596,Hook,-1.194427490234375,-0.86688232421875,-0.983367919921875
592,39.142,-1.7566770626116508,-0.231834829124768,-0.5752752243739678,-0.688397569927924,-0.7633451534319633,,-0.9933319091796876,-0.7003936767578125,-1.0199737548828125
593,39.191,-1.558795028818776,-0.4101802053937115,0.16242928318312272,-0.6601035938326697,-0.812487655771901,,-0.746307373046875,-0.8480987548828125,-0.2223968505859375
594,39.241,0.0402962381601808,0.07257840866704213,0.038473671671813314,-0.468361256642945,0.4404122049570558,,-0.400115966796875,-0.7206573486328125,-0.38201904296875
595,39.291,-0.003782104627504196,0.022342500432103507,0.030890227091049938,-0.8102695174537543,-0.0987222901743792,,0.094940185546875,-0.56085205078125,-0.775421142578125
596,39.341,-0.0039298039759723125,0.01269280687996499,0.018783715566205728,-0.8285663122933936,-0.1707999211634723,,0.1668701171875,-0.538970947265625,-0.797607421875
597,39.391,-0.04085228614328329,0.04872186113188637,0.0633357115312917,-0.7926113910272222,-0.4552047031354708,,0.4143524169921875,-0.494171142578125,-0.64239501953125
598,39.441,-0.009935029494410608,0.012273559675253787,0.013507909862096046,-0.740113452014296,-0.4781051955100356,,0.468170166015625,-0.578369140625,-0.63653564453125
599,39.491,0.19484530615188456,-0.19633837234307816,0.11618378200410384,-0.7334744660609825,-0.5300387270512404,,0.724884033203125,-0.7727203369140625,-0.5057830810546875
600,39.54,0.30513875365829246,-0.49860386376721844,0.0717276540256816,-0.7405300143126249,-0.539145303958895,,0.8442840576171875,-1.0645904541015625,-0.5519561767578125
601,39.59,0.4340588162390798,-0.6289177632518944,-0.08645992713667316,-0.7421523475729275,-0.5173877169640452,,0.951446533203125,-1.2024688720703125,-0.7215576171875
602,39.64,0.5067628282291098,-0.7785906511033447,0.001813869415105307,-0.7121147368854106,-0.4638487440365152,,0.970611572265625,-1.4005584716796875,-0.629058837890625
603,39.69,0.806858517994449,-0.7951235740374907,0.034468147841196894,-0.6802651933537159,-0.397059939036801,,1.20391845703125,-1.46783447265625,-0.589874267578125
604,39.74,1.2014844612300744,-0.6035486463091136,0.16688953098655868,-0.6372649513842963,-0.3206713004886756,,1.52215576171875,-1.33349609375,-0.4367218017578125
605,39.79,1.2134588909245312,-0.4426681178879024,-1.4255721848430394,-0.6133548522761139,-0.2696648883723437,,1.483123779296875,-1.203216552734375,-2.016204833984375
606,39.879,-0.2549040573167833,2.1876145969375087,-1.9144951643689059,-0.6232681287358824,-0.1075346725511583,,-0.147369384765625,1.4101409912109375,-2.534149169921875
607,40.039,-2.183094567214796,0.08239549279062008,0.878464392860363,-0.6269195836177855,-0.1684003533476088,Hook,-2.0146942138671875,-0.6855621337890625,0.260498046875
608,40.089,-0.04158071953971143,-0.0323603630657906,-0.031472738318158,-0.6972067764840855,0.6775049738196636,,-0.719085693359375,-0.55963134765625,-0.544281005859375
609,40.138,-0.05989491284612691,-0.2165769108603285,-0.6308185180605014,-0.70402343930958,0.6157795256304356,,-0.6756744384765625,-0.7761383056640625,-1.1855316162109375
610,40.188,-0.033629647904401816,-0.06635273827444033,-0.055876673701122814,-0.6441403563806782,0.3614661772909107,,-0.3950958251953125,-0.779541015625,-0.656463623046875
611,40.238,-0.007479761708062499,0.048328665845182806,0.04929879173577023,-0.714098058929441,-0.107714747059625,,0.1002349853515625,-0.64764404296875,-0.66064453125
612,40.288,0.01805606547149019,-0.03175271862177742,-0.025269406847270415,-0.6226980580691488,-0.4065197401925723,,0.4245758056640625,-0.74664306640625,-0.5941925048828125
613,40.338,0.007249694938178619,-0.0193973251386641,-0.011649018903447994,-0.5148409572540071,-0.3051282347493214,,0.3123779296875,-0.8358001708984375,-0.5019378662109375
614,40.388,0.3585914378707423,0.08380032227244938,0.05094953898701188,-0.5288254466205057,-0.3817039722855077,,0.74029541015625,-0.7006683349609375,-0.437835693359375
615,40.437,0.05608100887030609,-0.07394703720278961,-0.015527460498747342,-0.205499268980485,-0.5959880829265689,,0.652069091796875,-0.85980224609375,-0.1805419921875
616,40.487,0.13560443438191083,-0.19091942935487016,-0.043457666607922024,-0.2197418424190048,-0.6058659025321517,,0.7414703369140625,-0.967041015625,-0.2182769775390625
617,40.537,0.18815352698997234,-0.33786932014857385,0.0015016090603545695,-0.2293623409171841,-0.5910060189084652,,0.7791595458984375,-1.1230316162109375,-0.1835174560546875
618,40.587,0.16825853010859138,-0.7231241015576695,-0.04840577080896419,-0.2554692013175283,-0.5705720362976586,,0.73883056640625,-1.517120361328125,-0.258209228515625
619,40.637,0.3723126546503386,-0.6689940928221931,-0.23394449061975897,-0.3048716401534969,-0.547899137341849,,0.9202117919921876,-1.4657135009765625,-0.488983154296875
620,40.687,0.6457803142746306,-0.3732846377790835,-0.2447392929931762,-0.2956402737596413,-0.4897177326003695,,1.135498046875,-1.2061920166015625,-0.50250244140625
621,40.737,0.7176438160700165,-0.3998956371834852,-0.4810408761518159,-0.2091985947093097,-0.3651198558049836,,1.082763671875,-1.3102569580078125,-0.6757965087890625
622,40.786,1.09996848155428,-0.4394113750104701,-1.4491708901165063,-0.17912421897589,-0.2929300780160324,,1.3928985595703125,-1.3800811767578125,-1.6204376220703125
623,41.023,-3.813854556923381,0.3084337141535547,1.2509625019382482,-0.2493000411188682,-0.3334468420796309,,-3.48040771484375,-0.6045684814453125,1.01593017578125
624,41.075,-1.8453679528422617,0.4619069814422747,-0.7162677513092699,-0.364801674011864,-0.3874059167094493,,-1.4579620361328125,-0.3964691162109375,-1.052581787109375
625,41.125,-1.060955070533841,0.3456907540593218,-0.9008893101812445,-0.395854634910012,-0.4997825851822786,Hook,-0.5611724853515625,-0.44970703125,-1.2437591552734375
626,41.175,-0.9827990081602973,0.27725062977818427,-0.9060418848255034,-0.4236380912683178,-0.5934710052306098,,-0.3893280029296875,-0.451812744140625,-1.24700927734375
627,41.225,-0.0024657749006597035,-0.018705848764604904,-0.022201045807568542,-0.764737527929657,0.0846313930680903,,-0.08709716796875,-0.660736083984375,-0.7841949462890625
628,41.275,-0.010414617286813893,0.05501291255625651,0.06918728718594835,-0.7827246616615833,-0.1170125176774389,,0.106597900390625,-0.563079833984375,-0.708160400390625
629,41.325,-0.04876256699517967,0.052898874175912325,0.05491388138179798,-0.7201967448533937,-0.5387680601592422,,0.4900054931640625,-0.5315704345703125,-0.55181884765625
630,41.375,0.016827311987692717,-0.019657347929849744,-0.014473562175220389,-0.5929122731910185,-0.5675537915279323,,0.584381103515625,-0.6826629638671875,-0.5026397705078125
631,41.424,0.31651759573459226,-0.040346339247133156,-0.20188723179982604,-0.5826312277137159,-0.5972855048513454,,0.9138031005859376,-0.6921844482421875,-0.6691741943359375
632,41.474,0.38700908334596595,-0.38463385363040814,-0.15754047002963262,-0.5110084944563936,-0.5582881578649717,,0.9452972412109376,-1.0977783203125,-0.5814971923828125
633,41.524,0.32608714341355205,-0.7050799905805574,0.3623646459070935,-0.4549846349968449,-0.506798598773948,,0.8328857421875,-1.472747802734375,-0.0298614501953125
634,41.574,0.385936772002032,-0.6373217570562774,0.13749862955699638,-0.4485390096001851,-0.382251704560468,,0.7681884765625,-1.4632110595703125,-0.2769775390625
635,41.624,0.7998260282806424,-0.7152775983045873,0.12972711324995168,-0.4076544720938063,-0.2683960176177951,,1.0682220458984375,-1.59490966796875,-0.262969970703125
636,41.674,0.5088490719798144,-0.6542114960036689,-0.7017180804841447,-0.218605904051585,-0.082932544231123,,0.5917816162109375,-1.6266632080078125,-0.9195709228515624
637,41.743,0.7956141335430513,-1.002911824364602,-0.48400086557156446,-0.1134714523413639,-0.0325719016131987,,0.82818603515625,-1.9959259033203125,-0.597412109375
638,41.793,1.5146203042768596,0.5883334486481443,-1.70125510053372,-0.037133425446306,-0.137250423262203,,1.6518707275390625,-0.401519775390625,-1.738037109375
639,41.843,-0.12213814037764889,1.304980065326427,-2.083730520982813,0.0520238428054796,-0.2016974665495239,,0.079559326171875,0.3268585205078125,-2.03277587890625
640,42.012,-2.2494201306132178,0.3061859336689381,0.8435272304526261,0.1972359652413035,-0.2143554333475929,,-2.035064697265625,-0.6513824462890625,1.0361785888671875
641,42.062,-1.4021847665784775,0.3258637108915735,-0.7809794136167553,0.0854290565073401,-0.279671949195665,Hook,-1.1225128173828125,-0.6307220458984375,-0.6989593505859375
642,42.112,-1.6549880600750178,0.31032409487106816,-1.1941441466727536,-0.0287117215836802,-0.3279769516765803,,-1.3270111083984375,-0.63397216796875,-1.2212677001953125
643,42.162,0.1424494372796814,0.2389120039390995,0.12844376277449182,-0.473524802805006,0.4649439441156189,,-0.3224945068359375,-0.5408782958984375,-0.2907867431640625
644,42.212,0.24122793930894376,0.5845778861148507,-0.4052104728439698,-0.5967500892783447,0.3041246678245688,,-0.062896728515625,-0.179840087890625,-0.97369384765625
645,42.262,0.6987888510521183,0.6553825966066383,-0.3124610116055402,-0.6267182119604706,0.0767185385521183,,0.6220703125,-0.1215667724609375,-0.9373321533203124
646,42.312,-0.0515171635801317,0.06159180090061411,0.08429843708052376,-0.8074408690549788,-0.4425083745176317,,0.3909912109375,-0.4674530029296875,-0.6397857666015625
647,42.361,-0.026570494215556906,0.017055186377448517,0.010347012342447892,-0.5186879321912251,-0.7997028184343069,,0.77313232421875,-0.4962615966796875,-0.3010711669921875
648,42.411,-0.002049588461213503,-0.208363004299426,-0.5192882876703563,-0.5331813815351243,-0.843495511312776,,0.8414459228515625,-0.66278076171875,-0.8056793212890625
649,42.461,0.22441854734798317,-0.41399502386717757,-0.509302324075848,-0.5212193010215457,-0.8656693432770168,,1.090087890625,-0.8412322998046875,-0.770233154296875
650,42.511,0.45435964368748805,-0.8027822381170834,-0.5505952183290892,-0.4983109993642341,-0.855515844593762,,1.30987548828125,-1.2516937255859375,-0.8086090087890625
651,42.561,0.5598250651200624,-1.0343878899452754,-0.4040322189836763,-0.4432917123265075,-0.8271988606611876,,1.38702392578125,-1.5380706787109375,-0.6531219482421875
652,42.611,0.40684806080401725,-0.6946758046812435,0.04930352943592681,-0.3950303712453796,-0.7939423444694202,,1.2007904052734375,-1.2532196044921875,-0.1908721923828125
653,42.66,0.6183353663109283,-0.24935733939666826,0.32759901747924824,-0.3472609908447989,-0.7592281102515717,,1.3775634765625,-0.85968017578125,0.101593017578125
654,42.71,0.8982941727513969,0.42199221398735776,-0.8699554650578725,-0.3909059505990623,-0.7151854415064156,,1.6134796142578125,-0.2213287353515625,-1.1431732177734375
655,42.959,-2.989236775566016,0.28558403202147775,0.7720912504813934,-0.3027576883720672,-0.7118777667769536,,-2.2773590087890625,-0.383758544921875,0.5594635009765625
656,43.009,-1.9434316085337262,0.10904027888431911,-0.5809485768764753,-0.286174202792763,-0.7539784835337262,Hook,-1.189453125,-0.5203857421875,-0.7689361572265625
657,43.059,-1.5449584594605188,-0.19607918799247448,-0.8681088650237109,-0.2675907400645752,-0.7868560424683312,,-0.7581024169921875,-0.79071044921875,-1.0332489013671875
658,43.109,-1.5004560258217772,-0.30803998194722915,-0.576768672828133,-0.1694609663028096,-0.8075696732827147,,-0.6928863525390625,-0.8892822265625,-0.6767120361328125
659,43.159,0.0324717047660007,0.1517745446607035,-0.02100643576493283,0.1370986189067887,0.2073221686331882,,-0.1748504638671875,-0.8172607421875,0.1131134033203125
660,43.209,0.0798120521280361,0.2084164535547619,0.13033274077518064,-0.5302108899562603,0.3088159583780361,,-0.22900390625,-0.5980072021484375,-0.37396240234375
661,43.259,0.9195232562892213,0.3921201534128895,-0.5930946648885523,-0.6472643772860661,0.1916332416407837,,0.7278900146484375,-0.35601806640625,-1.228363037109375
662,43.308,0.7093162299772513,-0.04258142150929145,0.045846281928632826,-0.640005602621408,0.1074485541960013,,0.60186767578125,-0.8065032958984375,-0.5904541015625
663,43.358,0.6080745161877167,-0.1725116938168083,0.04174492957062159,-0.6245565414938234,0.0913508833752167,,0.5167236328125,-0.950225830078125,-0.5802001953125
664,43.408,0.748116074764207,-0.3704597616312112,0.4241751929616666,-0.6587539624141778,0.0799947368735821,,0.668121337890625,-1.1204071044921875,-0.2324676513671875
665,43.458,0.7067555292516411,-0.5857393039757683,0.7048060938074691,-0.662069624243354,0.0797566278844536,,0.6269989013671875,-1.332794189453125,0.0448455810546875
666,43.508,1.056505340649266,-0.7343632298110978,0.6220575320882276,-0.6854222446214547,0.0898457947508284,,0.9666595458984376,-1.459564208984375,-0.0605926513671875
667,43.558,1.3945556261459238,-0.6840413198663633,0.45674419240578545,-0.673687063989524,0.0940185167709237,,1.300537109375,-1.4197845458984375,-0.213958740234375
668,43.607,2.075342967743281,-0.279178427275825,0.09826677356691804,-0.6440799864441255,0.1065777089542186,,1.9687652587890625,-1.0397796630859375,-0.542144775390625
669,43.657,1.4871623213157625,-0.3889824988724375,-0.7060363514444538,-0.5852692477571718,0.1653544599876376,,1.321807861328125,-1.18865966796875,-1.2832489013671875
670,43.707,1.569590358645889,0.05858989080299959,-1.2471501815980819,-0.5283017706916656,0.2328899191927641,,1.336700439453125,-0.767120361328125,-1.76092529296875
671,43.956,-2.180754340656371,0.4971216028190356,0.03162904609253958,-0.5494666643053531,0.1675427784842541,,-2.348297119140625,-0.3265838623046875,-0.51007080078125
672,44.006,-1.019055772204696,-0.1298977583196016,-0.8206856819766359,-0.6059659057647154,0.0526300188109291,Hook,-1.071685791015625,-0.924285888671875,-1.425811767578125
673,44.056,-0.7114702518828188,-0.23908338668339169,-0.22213987405059332,-0.6224269635835714,-0.0562273319609438,,-0.655242919921875,-1.0205230712890625,-0.8435821533203125
674,44.106,0.020554695720142402,0.04131208631910299,0.030866125020014956,-0.5985353103992457,0.3702556234545174,,-0.349700927734375,-0.702850341796875,-0.5251312255859375
675,44.156,0.3879664881320785,0.4704286748043748,-0.0056081295530509,-0.6156357359678089,0.207348201999266,,0.1806182861328125,-0.30047607421875,-0.6078643798828125
676,44.206,0.8982498374326886,0.6168393146544866,-0.44363417553570017,-0.6270694113738865,0.0216476645811261,,0.8766021728515625,-0.1619415283203125,-1.070556640625
677,44.255,-0.015474136925672788,0.0141693839265844,0.010283600232601275,-0.5873717190101307,-0.6622484289178603,,0.6467742919921875,-0.5922393798828125,-0.4298248291015625
678,44.305,0.02062799094951062,-0.02299220294989901,-0.010586362347044964,-0.4182299870432777,-0.6317310178395519,,0.6523590087890625,-0.7271270751953125,-0.3347930908203125
679,44.355,0.2222268119117724,-0.09420519474472644,-0.11931103540292826,-0.4050538065965384,-0.6603415474632276,,0.882568359375,-0.7808074951171875,-0.423492431640625
680,44.405,0.02359061511794125,-0.5475451142128737,0.09072666633367904,-0.4081613720649988,-0.6580347510929963,,0.6816253662109375,-1.234954833984375,-0.21661376953125
681,44.455,0.23871989000796834,-0.7487973424994603,0.10951916124136718,-0.3752461209694963,-0.6499977613592192,,0.8887176513671875,-1.4532012939453125,-0.1756439208984375
682,44.505,0.15696537629780627,-0.8302283764577785,0.14375321400876867,-0.3686089454761977,-0.6198290572959437,,0.77679443359375,-1.5597076416015625,-0.1455078125
683,44.554,0.45340963901649733,-0.5569182988248226,0.2978099610084035,-0.3252850300564426,-0.5948386519991277,,1.048248291015625,-1.317047119140625,0.0363311767578125
684,44.604,0.9769978290121845,-0.3074039884374634,0.04432918901234062,-0.3087291600993009,-0.5580668682534405,,1.535064697265625,-1.0966644287109375,-0.21185302734375
685,44.903,-2.6873809484934923,0.8048572383261984,0.09090272965222712,-0.2775842880932713,-0.6060363440013049,,-2.0813446044921875,0.040679931640625,-0.1298980712890625
686,44.953,-1.8390687603372715,0.20753862941513423,-1.1801102158706764,-0.3345106023992489,-0.6779054302591466,Hook,-1.161163330078125,-0.485260009765625,-1.426025390625
687,45.003,-1.5379458806437678,-0.19025202846522515,-0.5079660254475935,-0.3302924106085808,-0.7471591374797052,,-0.7907867431640625,-0.817596435546875,-0.7274932861328125
688,45.053,0.03592312122335478,0.05062990239533238,0.05026958493192224,-0.7045771725497725,0.4497109630202298,,-0.413787841796875,-0.58319091796875,-0.57904052734375
689,45.103,0.0615003546567737,0.20469610469249866,0.15341584617675663,-0.5997341850392277,0.2337568243833362,,-0.1722564697265625,-0.573333740234375,-0.4297027587890625
690,45.153,-0.006644016968284705,0.06813025432874464,0.04569523596045166,-0.5570193631857095,-0.0807254378667222,,0.0740814208984375,-0.7596588134765625,-0.5095062255859375
691,45.202,0.1207565440717289,0.09626718379977306,-0.3026227700410401,-0.5855955512009775,-0.1885391102251461,,0.309295654296875,-0.699798583984375,-0.877716064453125
692,45.252,0.037507114406500675,-0.05301121435931455,-0.05237789038246232,-0.7028448117685602,-0.4495686912575618,,0.4870758056640625,-0.68841552734375,-0.6801910400390625
693,45.302,0.06386569356810956,-0.046609947164570675,-0.03355921023644126,-0.5843052794380894,-0.7435531296740779,,0.8074188232421875,-0.589263916015625,-0.4242706298828125
694,45.352,0.04003454751999791,-0.06226837936370022,-0.012883443930345628,-0.2026105951782631,-0.5327956526753146,,0.5728302001953125,-0.890960693359375,-0.1843414306640625
695,45.402,-0.033688368539648295,-0.5367900411870886,-0.00444810642463242,-0.2077231492195358,-0.5394714495943358,,0.5057830810546875,-1.3604278564453125,-0.179351806640625
696,45.452,0.5197812017289423,-0.782492101478927,-0.5354879024858518,-0.3061415965331942,-0.5548800531538702,,1.0746612548828125,-1.5744781494140625,-0.7901763916015625
697,45.501,0.8550334889421795,-0.8101363171789019,-0.20242034024532063,-0.3061532208243542,-0.5482257884015705,,1.40325927734375,-1.6063079833984375,-0.458465576171875
698,45.551,1.2023612209234762,-0.3600030416229453,-0.6048651488065273,-0.2647590057442803,-0.4899910739983987,,1.692352294921875,-1.20062255859375,-0.835662841796875
699,45.601,1.5098527510228366,-0.0778673094585921,-0.8799705331701059,-0.2015336361671569,-0.3764234940943509,,1.8862762451171875,-0.9853057861328124,-1.066680908203125
700,45.9,-2.3805547338593818,0.22031275375773318,-0.2047081717740057,-0.1903525543440027,-0.3819280248750067,,-1.998626708984375,-0.686981201171875,-0.3806304931640625
701,45.95,-1.2870344786456545,0.09019279996974228,-1.09419103929513,-0.2176115637587246,-0.437501397590967,Hook,-0.8495330810546875,-0.7874755859375,-1.2898712158203125
702,46.0,-0.9581943369629018,0.052351963220858555,-0.4825924261753345,-0.1804305532105175,-0.4577976084472768,,-0.500396728515625,-0.822113037109375,-0.64300537109375
703,46.05,0.010169155672490097,0.2157606929238225,0.16983472779462316,-0.6185159077289891,0.0370093656334276,,-0.0268402099609375,-0.5694732666015625,-0.4482574462890625
704,46.1,-0.003654345817779601,0.12805141045074198,0.0519465380380017,-0.3759151949054794,-0.0264357178880921,,0.0227813720703125,-0.79827880859375,-0.3238372802734375
705,46.149,-0.13205232495690555,0.16920316778431632,0.1281968568759665,-0.6038955149607488,-0.5282010065975306,,0.396148681640625,-0.507598876953125,-0.38458251953125
706,46.199,-0.214373459429686,0.19096449946046345,0.1308946322317493,-0.5653742438397406,-0.6794155736874985,,0.4650421142578125,-0.4142608642578125,-0.2839508056640625
707,46.249,-0.17610588771585756,0.12367646776381813,0.04288548970633124,-0.3276181016811879,-0.8025707314658576,,0.62646484375,-0.4399566650390625,-0.152557373046875
708,46.299,-0.008237363775434603,0.01143868430188677,0.002230828422890796,-0.1914186089288705,-0.5771918315488721,,0.5689544677734375,-0.790069580078125,-0.154083251953125
709,46.349,-0.279785440066452,-0.43816998456564427,0.1305455624807782,-0.2383557337976845,-0.5373080230742645,,0.2575225830078125,-1.2572479248046875,-0.0704803466796875
710,46.399,0.09903198977846406,-0.829076868082003,0.2697078209825538,-0.3280294111469182,-0.5081304858074734,,0.6071624755859375,-1.6427001953125,-0.0128173828125
711,46.488,0.655743032585441,-1.1486984347987732,-0.22800038546465753,-0.275958258178202,-0.468066781867684,,1.123809814453125,-1.998077392578125,-0.47186279296875
712,46.538,1.2923424686816638,-0.49485503123305485,-0.7247214338392387,-0.2981750621938618,-0.4552619014355237,,1.7476043701171875,-1.3447113037109375,-0.990203857421875
713,46.588,0.861541052865754,0.05026477141381813,-1.0947415483272853,-0.2456626577202827,-0.3990943231108085,,1.2606353759765625,-0.8385467529296875,-1.3199920654296875
