Index,Time,Acceleration X,Acceleration Y,Acceleration Z,Orientation X,Orientation Z,Punch Type,Raw Acceleration X,Raw Acceleration Y,Raw Acceleration Z
0,0.0,-0.0776373761843393,0.016403843576120014,0.010477252569047413,-0.5382805198993287,-0.0392004865359018,,-0.0384368896484375,-0.825714111328125,-0.5273895263671875
1,0.05,-0.0014209735801751985,0.022416583213785368,0.01670017434610438,-0.5974266232915539,-0.0507678974083002,,0.049346923828125,-0.778472900390625,-0.5799560546875
2,0.1,0.00033713426273269953,-0.019519489186333727,-0.017491616852231995,-0.6673627786091084,-0.0128617182763298,,0.0131988525390625,-0.764190673828125,-0.6847991943359375
3,0.15,8.272940570600018e-05,-0.0021863950744277494,-0.001853906640103098,-0.6467306847743968,-0.028847934656794,,0.0289306640625,-0.76458740234375,-0.6483154296875
4,0.2,2.095211536509993e-05,-0.014729337101660245,-0.013541950792327229,-0.6768118138416616,-0.0010471631190099,,0.001068115234375,-0.750885009765625,-0.6903533935546875
5,0.25,1.043284942599948e-06,-8.667303448028907e-05,-7.10836209537602e-05,-0.634142171691917,-0.0093068180431824,,0.009307861328125,-0.7732696533203125,-0.634185791015625
6,0.3,-0.0003662358380805992,0.031018449121210767,0.02336818939241514,-0.6017183078685987,-0.0094299565412056,,0.009063720703125,-0.7676544189453125,-0.5783233642578125
7,0.349,0.0010080771343946998,0.018106963954341193,0.015862146449162062,-0.6589410129336456,0.0418405966656447,,-0.04083251953125,-0.733428955078125,-0.6425018310546875
8,0.399,0.002659613379843495,0.027152210379972952,0.020258685730662807,-0.5980055791982914,0.078266913184531,,-0.0756072998046875,-0.771881103515625,-0.5759124755859375
9,0.449,0.0021134198487151035,0.013159523377789362,0.012276702428325903,-0.6821543281027536,0.1166306317627776,,-0.1145172119140625,-0.7130584716796875,-0.66522216796875
10,0.499,0.00022961765246180127,0.005964331250947086,0.0057279676253250145,-0.6926708687964013,0.0277564731212118,,-0.02752685546875,-0.7150115966796875,-0.686676025390625
11,0.549,0.00013101944928510002,-0.010407256899115258,-0.01162041730966945,-0.7449213584223133,-0.0083986436366524,,0.0085296630859375,-0.6775360107421875,-0.7565155029296875
12,0.599,-0.012723900032061697,0.09252557128617522,0.06160874333396971,-0.5542331896017292,-0.1137218248367492,,0.1009979248046875,-0.73443603515625,-0.4890289306640625
13,0.648,0.003740942160440297,0.0285828644725028,0.014863519166310624,-0.4613632341167175,0.1153437253635653,,-0.111602783203125,-0.8527069091796875,-0.44342041015625
14,0.698,-0.00040513327667998644,-0.0026362135749061766,-0.0013614081682563617,-0.4588509801755864,0.1352912778561325,,-0.1356964111328125,-0.8829803466796875,-0.45599365234375
15,0.748,-0.009944514088256806,-0.04306268101499022,-0.02224135464270305,-0.4588946962933274,0.2009929859117432,,-0.2109375,-0.913421630859375,-0.471771240234375
16,0.798,-0.007388738789978894,-0.03243614860519639,-0.01971049884944176,-0.5193077213758402,0.1910823305459586,,-0.1984710693359375,-0.87127685546875,-0.529449462890625
17,0.848,-0.0086645630639903,-0.0300373961403686,-0.01684093014158622,-0.4890451774670816,0.2440057250219472,,-0.2526702880859375,-0.8759307861328125,-0.4911041259765625
18,0.898,0.026109413889015803,0.12737725305095038,0.0652982177190512,-0.4561869261080298,0.1794449851780783,,-0.1533355712890625,-0.7480621337890625,-0.38348388671875
19,0.947,0.015768254513816804,0.06110877821834648,0.05195726799612166,-0.6477555800163047,0.1928922779513168,,-0.1771240234375,-0.686431884765625,-0.5836334228515625
20,0.997,0.0031000450329752988,-0.035334215316031425,-0.03243710776828501,-0.6762615585706323,-0.0644963905138997,,0.067596435546875,-0.7704620361328125,-0.7072906494140625
21,1.047,-0.1079570464509974,0.05520655657051876,-0.29930108972774694,-0.6902239253159846,-0.1003886870759974,,-0.007568359375,-0.66473388671875,-0.9860382080078124
22,1.097,-0.01687678982162019,-0.05160540819758974,-0.05762243826466429,-0.7449297288052477,0.2131647140846298,,-0.23004150390625,-0.7034149169921875,-0.785430908203125
23,1.147,0.0339515193633914,0.30521090644787574,0.23146336298372716,-0.6042606324806763,0.0882880672149539,,-0.0543365478515625,-0.48846435546875,-0.3704376220703125
24,1.197,-0.2563765951259855,0.4691384915392567,-0.003733895026450276,0.0079587943325163,-0.479536385165048,,0.2231597900390625,-0.408355712890625,0.0032501220703125
25,1.247,0.038925919425638056,0.7360863508412061,-0.47855510975650317,-0.1598908794833806,-0.5070945883868619,,0.5460205078125,-0.114715576171875,-0.616363525390625
26,1.296,0.3989969444118683,0.6880329130670322,-0.632644235299187,-0.3049385916229599,-0.5142873573459441,,0.9132843017578124,-0.1287384033203125,-0.8941650390625
27,1.346,0.8688015596204647,0.832534842239652,-1.205224236190064,-0.3616804357935379,-0.4726443632310978,,1.3414459228515625,0.0109405517578125,-1.523956298828125
28,1.396,1.4868417715699291,-0.05771422230179013,-1.0264621692591676,-0.441465422248848,-0.3943075204222584,,1.8811492919921875,-0.882293701171875,-1.432159423828125
29,1.604,-2.8024832063951193,1.0846245175315472,1.5436071759933634,-0.4033850178161292,-0.2608724886216816,,-2.5416107177734375,0.2012786865234375,1.1541900634765625
30,1.656,-0.7562433427033168,0.24577159338740528,-0.4154042595333815,-0.3528949774417207,-0.1726404374298793,UpperCut,-0.5836029052734375,-0.67584228515625,-0.76300048828125
31,1.706,0.0869107672432981,0.17514358075094394,-0.8425964492197434,-0.379754982632512,-0.2092623284598269,,0.296173095703125,-0.729461669921875,-1.2139434814453125
32,1.756,0.4890870304792891,0.39032464630523056,-0.8185421698024111,-0.4187773700094105,-0.2266112117082109,,0.7156982421875,-0.494140625,-1.2264251708984375
33,1.806,0.6570797262977445,0.3745852416448311,-0.43257435684704193,-0.3535185872506384,-0.203622788350693,,0.8607025146484375,-0.5412445068359375,-0.7786865234375
34,1.856,0.0020410264986798973,-0.02747107198035381,-0.021020426639133283,-0.6076897124871172,-0.0589025770169451,,0.060943603515625,-0.8202667236328125,-0.627655029296875
35,1.906,-0.0765664696888827,-0.17988896462268622,-0.04774306851934251,-0.5870933526958688,-0.0551889062123202,,-0.0213775634765625,-0.9881744384765624,-0.633941650390625
36,1.956,-0.3860425121912296,0.11492064415425574,-0.4188356409055143,-0.660321154555611,-0.0764416821131046,,-0.309600830078125,-0.6338653564453125,-1.0772247314453125
37,2.005,-0.29653581989514977,0.11081309212855417,-0.3796882669024574,-0.7262973563867244,-0.1080897749732748,,-0.188446044921875,-0.572540283203125,-1.1017303466796875
38,2.055,-0.02908502118264522,0.04441007898972593,0.06505422001669603,-0.8259026250333646,-0.3463915397373327,,0.3173065185546875,-0.4844970703125,-0.709716796875
39,2.105,-0.22570287523331178,-0.018177030872194855,-0.2420581187853691,-0.881937610834381,-0.3759103947645618,,0.15020751953125,-0.4549713134765625,-1.0593109130859375
40,2.155,-0.0002873257671980878,-0.007205154577547834,-0.017575372572036674,-0.9118336596717757,-0.4386418179546981,,0.4383544921875,-0.37615966796875,-0.837005615234375
41,2.205,0.2842109250102337,0.20832233373624742,-0.26639224966194774,-0.923218421392032,-0.5384361697163288,,0.8226470947265625,-0.1154937744140625,-1.0443572998046875
42,2.255,1.0386743490423551,0.14131390019787202,0.34847634728187493,-0.9560498205346742,-0.5564184243951449,,1.5950927734375,-0.1023101806640625,-0.4459075927734375
43,2.304,1.4105266631037912,0.07567184398836457,-0.2172704707994465,-0.9805791998334222,-0.4933277070133963,,1.9038543701171875,-0.0949249267578125,-1.070220947265625
44,2.554,-2.6795275623096844,0.0888206019243396,2.141679908818379,-0.9816261675493876,-0.4252856189503096,,-2.254241943359375,-0.0838775634765625,1.2532501220703125
45,2.603,-0.6059135548379363,-0.30682040545192324,-0.9393421344302032,-0.994705171539866,-0.4292015187051238,,-0.1767120361328125,-0.3996429443359375,-1.8377685546875
46,2.653,0.741250757103876,-0.20532798507629252,-0.8668259082267177,-0.9987422972279484,-0.4816343747320614,UpperCut,1.2228851318359375,-0.249267578125,-1.742095947265625
47,2.703,0.09153452183034572,-0.5963167237780266,-0.8260588806200169,-0.9888555159873144,-0.4772978756305918,,0.5688323974609375,-0.727142333984375,-1.69500732421875
48,2.753,0.09354608802011372,-0.4444479904315617,-0.48876428090750723,-0.9758316905874358,-0.4723718807298863,,0.56591796875,-0.637054443359375,-1.3488616943359375
49,2.803,0.168966466564197,-0.40445563369477894,-0.21878387542619648,-0.954720544994892,-0.4542482551154905,,0.6232147216796875,-0.66949462890625,-1.0693206787109375
50,2.853,-0.03190195077279845,0.03542003052155607,0.029118722683134868,-0.6350479686272761,-0.5711170386634234,,0.539215087890625,-0.5986785888671875,-0.4921722412109375
51,2.902,-0.966486884998646,-0.12973879827114432,-0.4383910615661394,-0.6274271073125363,-0.5618390578502085,,-0.4046478271484375,-0.773895263671875,-0.957427978515625
52,2.952,-0.5427676919274764,0.05169649021041245,-0.4214886800945029,-0.6573401183714715,-0.6325656655602889,,0.0897979736328125,-0.5319671630859375,-0.93060302734375
53,3.002,0.033511628326829856,0.18621179731295706,-0.38879264447148054,-0.7368058462140344,-0.7011380298762951,,0.734649658203125,-0.295867919921875,-0.914154052734375
54,3.052,0.921877999190061,-0.06284198377504313,-0.5802418904182468,-0.8065425161062252,-0.728848319169314,,1.650726318359375,-0.4676055908203125,-1.1324615478515625
55,3.102,1.1619001806645015,-0.09661035748945729,-1.373112304290197,-0.8421019602256186,-0.705546718749561,,1.8674468994140625,-0.4788055419921875,-1.969879150390625
56,3.371,-2.9769324225594476,0.2551669093707884,0.37067143137739744,-0.8746538478202017,-0.5601538581063228,,-2.416778564453125,-0.146392822265625,-0.3538818359375
57,3.471,0.16239548441475005,-0.42027432472908954,-1.1993608660241017,-0.904855114916455,-0.5882606435149375,UpperCut,0.7506561279296875,-0.7645416259765625,-1.93109130859375
58,3.521,0.30946300952373773,-0.4480504899851888,-0.5087951224350603,-0.8837181154029426,-0.6158452180153247,,0.9253082275390624,-0.8167877197265625,-1.205047607421875
59,3.57,-0.18743663634017904,-0.17486676793702616,-0.7383638119119259,-0.8620685183269248,-0.6149421295042415,,0.4275054931640625,-0.5745086669921875,-1.4181671142578125
60,3.62,0.1597551070112948,-0.1306621703349341,0.034056224831710336,-0.8383015105202213,-0.6076704300980802,,0.767425537109375,-0.56365966796875,-0.6317138671875
61,3.67,-0.07338903003645969,-0.03762178467928401,-0.3727267184512727,-0.8444392715871182,-0.5991306071848972,,0.5257415771484375,-0.46649169921875,-1.048828125
62,3.72,0.471654894224513,-0.15327130774495717,-0.034165259203110865,-0.8767172907824202,-0.625696179994237,,1.09735107421875,-0.5284881591796875,-0.7180633544921875
63,3.77,1.3050533648270033,-0.264573520876591,-0.20781911352781035,-0.9315258245314262,-0.6768802289229968,,1.98193359375,-0.5322723388671875,-0.8935089111328125
64,4.087,-3.039008206635589,0.8814905634631436,0.4760920247439755,-0.9723865814286582,-0.6061621372996516,,-2.4328460693359375,0.6958770751953125,-0.2972869873046875
65,4.187,-0.014250964126535814,-0.654973390703965,-1.3070763981175018,-0.966082148715914,-0.6436760129546608,UpperCut,0.629425048828125,-0.85260009765625,-2.046417236328125
66,4.237,0.48468137462462924,-0.5271655467695373,-0.45527558693592407,-0.966271105542808,-0.6850726536956833,,1.1697540283203125,-0.7147674560546875,-1.1591796875
67,4.287,0.5458001202345345,-0.2628184107323468,-0.5896425894061855,-0.957942602289694,-0.6876593524217155,,1.23345947265625,-0.471160888671875,-1.2851409912109375
68,4.337,0.05888232333441967,-0.08347102871885964,-0.20745433239500932,-0.9338427796449772,-0.6897443856499553,,0.748626708984375,-0.3424530029296875,-0.88360595703125
69,4.387,0.3649306405991529,-0.15482163509754848,0.584064784001968,-0.949463283020784,-0.6959366689711596,,1.0608673095703125,-0.380218505859375,-0.097747802734375
70,4.436,0.2539472260981691,-0.3350164823045405,-0.43519791014967124,-0.9817184341656472,-0.7211809477299559,,0.975128173828125,-0.4668731689453125,-1.1152801513671875
71,4.785,-3.45470337240336,-0.4027908522894812,2.076073830466154,-0.9844681981205736,-0.6818151888096101,,-2.77288818359375,-0.531219482421875,1.3559112548828125
72,4.835,-0.4479608966514008,-0.2535422074323869,-0.8588471836930999,-0.9959809379403168,-0.6479578448935883,,0.1999969482421875,-0.3217620849609375,-1.617462158203125
73,4.896,0.42276253245128914,-0.8190103968515159,-1.1906556333315717,-0.9920221426634596,-0.6156590984080859,UpperCut,1.038421630859375,-0.9183502197265624,-1.972381591796875
74,4.946,0.7564326773976264,-0.7325845315300342,-0.2606777061026755,-0.9873492615448148,-0.5882481087351861,,1.3446807861328125,-0.860809326171875,-1.0591278076171875
75,4.996,0.669635578037454,-0.3981674340850936,-0.49341924351822997,-0.9890270216777252,-0.548320964931296,,1.21795654296875,-0.5217132568359375,-1.3205108642578125
76,5.046,0.507751232404205,-0.5290443411019985,0.9266442522947855,-0.978371162613757,-0.5292208134942324,,1.0369720458984375,-0.704559326171875,0.0965118408203125
77,5.096,0.16434086291133654,-0.15117218264090854,0.18920418636896152,-0.993767324967652,-0.5635949281042885,,0.727935791015625,-0.243255615234375,-0.6316986083984375
78,5.145,0.7866480604454087,-0.32654177037173465,0.19578357648513278,-0.9981093557303844,-0.6067845567420913,,1.3934326171875,-0.375396728515625,-0.5975799560546875
79,5.195,1.242946052957223,-0.60278189760704,-0.32078976679547,-0.9938333734188473,-0.6551557536834022,,1.898101806640625,-0.686553955078125,-1.071624755859375
80,5.483,-3.3800585540610193,0.1432227919842585,2.9760407486514118,-0.9862578869254818,-0.6256792816000818,,-2.7543792724609375,0.01434326171875,2.2066802978515625
81,5.533,-0.870958782036455,-0.16692359796079442,-0.594002452620686,-0.9587643703584344,-0.609606242973955,,-0.2613525390625,-0.3922119140625,-1.3540191650390625
82,5.583,0.2414656692889623,-0.5115739467404573,-1.2146250695764311,-0.9521793237062696,-0.6283921187969752,UpperCut,0.8698577880859375,-0.7492523193359375,-1.955322265625
83,5.633,0.6047727236482724,-0.36879377383024436,-0.7280656032053895,-0.976781792492634,-0.6218202939298526,,1.226593017578125,-0.5365753173828125,-1.4930419921875
84,5.682,0.7146697812446906,-0.25751424221477637,-0.03415064278975544,-0.9809143425966522,-0.5622924990287469,,1.2769622802734375,-0.418304443359375,-0.845306396484375
85,5.732,0.2765956697263684,-0.3188042811284541,0.20624096420410465,-0.986031597196644,-0.5213321867189441,,0.7979278564453125,-0.4609375,-0.63519287109375
86,5.782,-0.0185044380659537,0.01550100885537431,0.01076760441950092,-0.5705035738946077,-0.7000840279097037,,0.68157958984375,-0.570953369140625,-0.3966064453125
87,5.832,-0.07549137553431562,0.2571092236927919,-1.0952424543851191,-0.6444264311257785,-0.7559265561983781,,0.6804351806640625,-0.2434844970703125,-1.517120361328125
88,5.882,0.6782969377163235,-0.3055558346044444,-0.4686626885488074,-0.7010607662104219,-0.799135313260239,,1.4774322509765625,-0.7342376708984375,-0.890106201171875
89,6.212,-2.9026257393922656,0.2127729809073856,1.6936657437768503,-0.6573705551465134,-0.7205883858766408,,-2.182037353515625,-0.309722900390625,1.2378692626953125
90,6.262,-0.6003141745220363,0.17897258745469818,-0.9322966911450374,-0.7679005185985195,-0.7420530661235988,,0.1417388916015625,-0.25042724609375,-1.447052001953125
91,6.312,0.09241299610207909,-0.25652715576251933,-1.1327153987317802,-0.8380705719257717,-0.7368869306557334,UpperCut,0.8292999267578125,-0.625335693359375,-1.6992645263671875
92,6.362,0.15746396583018862,-0.18952862622671873,-0.22473094702237773,-0.8303417452616442,-0.7263556142479364,,0.883819580078125,-0.572540283203125,-0.795440673828125
93,6.411,0.1030916868561601,-0.2285684059120004,-0.11865003750492376,-0.8350460540006307,-0.7058377565032149,,0.808929443359375,-0.6183013916015625,-0.710174560546875
94,6.461,-0.12052831658347951,0.08693283383656558,0.08194902568305934,-0.6859410026333056,-0.7102194786928545,,0.589691162109375,-0.425323486328125,-0.40093994140625
95,6.511,-0.33386452563267144,0.34004361410618306,-0.7279690361796944,-0.7422211856388309,-0.7505973137186089,,0.4167327880859375,-0.1027679443359375,-1.2183990478515625
96,6.561,-0.11934510933667297,-0.08086916064076044,-1.2047498193430248,-0.75784523355372,-0.757070939414798,,0.637725830078125,-0.5071258544921875,-1.6998748779296875
97,6.611,-0.20335635047428813,-0.48754610359509387,-0.9633816510152547,-0.7315289486211145,-0.7536493192242881,,0.55029296875,-0.9356842041015624,-1.4441986083984375
98,6.661,0.9097298968213601,-0.5440519240108719,-0.8208759448529074,-0.8041363389921578,-0.7831717145067649,,1.692901611328125,-0.9136810302734376,-1.320892333984375
99,6.94,-3.0926921851998403,-0.12509718546330184,1.3104712684981017,-0.8228309661222818,-0.7623241432076528,,-2.3303680419921875,-0.492889404296875,0.7779388427734375
100,7.005,0.14858897664340864,0.15165077192038623,-1.5934027046479629,-0.8799844403416447,-0.7464915897628414,,0.89508056640625,-0.1644134521484375,-2.1789398193359375
101,7.059,-0.06222279415175225,-0.40004432485042596,0.10698845359766052,-0.8628800882072752,-0.7374852453236272,UpperCut,0.675262451171875,-0.7413787841796875,-0.47576904296875
102,7.109,-0.17488965461413974,-0.21362446791224554,-0.3127375191476808,-0.8806351292330591,-0.7399989075438272,,0.5651092529296875,-0.5323028564453125,-0.905059814453125
103,7.159,-0.0893329560953281,-0.028792606493012296,-0.5970020844566158,-0.863094788896597,-0.7715534150797031,,0.682220458984375,-0.3500823974609375,-1.1460723876953125
104,7.209,-0.5079842284593529,0.08642648072860526,-0.868520783256291,-0.8775332070404984,-0.7911873534593529,,0.283203125,-0.2068328857421875,-1.4051971435546875
105,7.259,-0.022894415886013486,-0.027813783239026446,-0.8042324455290232,-0.8942953996106507,-0.8222718572922635,,0.79937744140625,-0.282470703125,-1.31317138671875
106,7.309,-0.23274345529970641,-0.18832034097106873,-0.9512176549605948,-0.9199057871466532,-0.8317424787372064,,0.5989990234375,-0.4060211181640625,-1.4619140625
107,7.358,0.8629509123570417,-0.48280947503083177,-0.8894052592432389,-0.9464643857431776,-0.8535407868617083,,1.71649169921875,-0.6510009765625,-1.382537841796875
108,7.408,0.9913506454730832,0.07273361594685733,-0.7525620403020197,-0.9642546248517592,-0.8838324599956668,,1.87518310546875,-0.0512237548828125,-1.203643798828125
109,7.737,-2.955323710848417,0.08752980321502059,1.2202148180968564,-0.979175003556268,-0.8786635545984168,,-2.07666015625,-0.0093994140625,0.752716064453125
110,7.837,0.11786942995698979,-0.6499164268673779,-1.8423236944572823,-0.9819859055373664,-0.8990067907461352,UpperCut,1.016876220703125,-0.732666015625,-2.272369384765625
111,7.887,0.17483144855880195,-0.3818811973850788,-0.4814285123127718,-0.9834901834759768,-0.932834567066198,,1.107666015625,-0.44708251953125,-0.835784912109375
112,7.937,0.00953131081549663,-0.05217407725650473,-1.0719244973528914,-0.978459212892343,-0.9518944704345034,,0.96142578125,-0.1154327392578125,-1.3717498779296875
113,7.986,-0.15730905029081765,-0.2580522649605148,-0.3546385183549537,-0.9622118361110524,-0.9542450854470677,,0.79693603515625,-0.3394775390625,-0.642364501953125
114,8.036,-0.4070966661460862,-0.16140045955183263,-0.8154723271600585,-0.9714145904244988,-0.9617536485679612,,0.554656982421875,-0.2264251708984375,-1.0815582275390625
115,8.086,-0.3092437152870553,-0.3354559838228381,-0.9794366573482584,-0.9820190072696954,-0.9707274799354928,,0.6614837646484375,-0.38079833984375,-1.215301513671875
116,8.136,0.01637355748381497,-0.251179361990202,-1.0312022966897456,-0.9874375760141828,-0.9809866720083726,,0.9973602294921876,-0.2818450927734375,-1.22283935546875
117,8.186,0.5772798139992376,-0.13994022420600083,-1.5852238188582977,-0.9975536485775816,-0.9891874711570124,,1.56646728515625,-0.1501922607421875,-1.7315216064453125
118,8.445,-3.810707114406497,-0.5417093357856977,1.5934964060320407,-0.9969881625570884,-0.9521408302268096,,-2.8585662841796875,-0.5654144287109375,1.28875732421875
119,8.495,-1.0382425553835422,-0.3250377671289816,-1.503442614595906,-0.996775189984929,-0.939853883508542,,-0.098388671875,-0.352447509765625,-1.8439178466796875
120,8.545,-0.059909148859502936,-0.38347374374675736,-1.5321949981364196,-0.9932215259604442,-0.9447205502266904,UpperCut,0.8848114013671875,-0.4215850830078125,-1.85784912109375
121,8.594,-0.11670283423203076,-0.6861839064582927,-0.35041919521471465,-0.9962171078798472,-0.9397924338414058,,0.823089599609375,-0.71588134765625,-0.6908721923828125
122,8.644,-0.3864937477465351,-0.45362123086128664,-0.4930383073793137,-0.9920273831928664,-0.9471474342699726,,0.5606536865234375,-0.494049072265625,-0.811279296875
123,8.694,-0.3242642809179611,-0.3227652070064701,-1.065912240033438,-0.9896159168365164,-0.9581296373632736,,0.6338653564453125,-0.363922119140625,-1.349273681640625
124,8.744,-0.5663796701524428,-0.6649613957527607,-1.1122929597156335,-0.9845214243012546,-0.9547768869493178,,0.388397216796875,-0.717071533203125,-1.4050140380859375
125,8.794,-0.509540577623042,-0.6803150581154852,-1.1498693997151654,-0.9821681353236028,-0.9639625746933544,,0.4544219970703125,-0.7303314208984375,-1.411163330078125
126,8.844,-0.11573824254210863,-0.4771916845318252,-1.1102647299618245,-0.963770713555524,-0.9801486429327336,,0.864410400390625,-0.5300750732421875,-1.3013458251953125
127,8.894,0.42604832158935335,0.13155286451856707,-0.9621162697973533,-0.92552964069833,-0.9949721862231466,,1.4210205078125,0.0936279296875,-1.0548095703125
128,9.006,1.8175398122854078,0.8846492654376877,-3.6002073968238437,-0.9014019578076442,-0.981379865448967,,2.798919677734375,0.801483154296875,-3.773345947265625
129,9.203,-3.422075284891726,0.3843461941289427,2.176233766452485,-0.9427660591169464,-0.9502430095011012,,-2.471832275390625,0.2804718017578125,1.8825531005859375
130,9.252,-0.9601147424153654,0.2637008984379114,-0.667381212084577,-0.888799965036038,-0.9522106896809904,UpperCut,-0.007904052734375,0.12371826171875,-0.9388580322265624
131,9.302,-0.4664641277454754,-0.34668688230033645,-1.598365073562252,-0.8374028942323163,-0.9483672039173504,,0.481903076171875,-0.520050048828125,-1.8639678955078125
132,9.352,-0.30936212699436183,-0.6268634947659661,-0.5211656895975321,-0.8615786182633458,-0.9363762871506118,,0.62701416015625,-0.8050384521484375,-0.823577880859375
133,9.402,-0.09635019474985351,0.10883806257830009,0.043744402961706785,-0.3729274712761066,-0.634726049242041,,0.5383758544921875,-0.608154296875,-0.2444305419921875
134,9.452,0.07995466399470808,0.4201260150725853,-0.6561577982475543,-0.5370112420246694,-0.6799788076849794,,0.7599334716796875,-0.1984100341796875,-1.0499114990234375
135,9.502,-0.2335441965654973,0.17176061544176258,-0.7063989675897693,-0.568279558365013,-0.6860130686358098,,0.4524688720703125,-0.4269256591796875,-1.119873046875
136,9.551,-0.17031147983412054,0.10336421417636865,-0.7709086819588168,-0.6097323950959366,-0.708626299170058,,0.5383148193359375,-0.4558868408203125,-1.2011260986328125
137,9.609,0.10662457071747722,0.3993852254119477,-1.7918906132925247,-0.7214873967343741,-0.7555733052590853,,0.8621978759765625,-0.05419921875,-2.2645111083984375
138,9.93,-3.0020267754682,0.485479168168971,0.5246133219183025,-0.7566032104970136,-0.7024509698041377,,-2.2995758056640625,0.0200958251953125,-0.013885498046875
139,9.98,-0.9080899859628275,0.36397671668960435,-0.787327573234542,-0.8476946502954648,-0.699212422486265,,-0.2088775634765625,-0.0152740478515625,-1.3933563232421875
140,10.03,-0.13492494478128547,-0.04225712131996617,-0.9839066060954138,-0.8851559568374394,-0.7418585385312855,UpperCut,0.60693359375,-0.3542633056640625,-1.57745361328125
141,10.08,-0.16393221275044,-0.46713920633533823,-0.7062968709776521,-0.8565096992574655,-0.754599937359815,,0.590667724609375,-0.805816650390625,-1.2683258056640625
142,10.13,-0.1564433670977471,-0.33719146386825755,-0.836260496748937,-0.876067091581904,-0.7931468583086846,,0.6367034912109375,-0.630859375,-1.36981201171875
143,10.189,-0.27357766180901044,-0.23082474754968246,-1.4755948489037842,-0.8850697827299159,-0.8102597907152604,,0.53668212890625,-0.5036163330078125,-1.9943084716796875
144,10.239,-0.2437762186517558,-0.29748253890618565,-0.37218510551761813,-0.8401717384933788,-0.8169878885736308,,0.573211669921875,-0.6102142333984375,-0.8566741943359375
145,10.289,-0.35948614692545877,-0.22268651463961203,-0.5014031610741491,-0.8496572952562536,-0.8132214984879588,,0.4537353515625,-0.529571533203125,-0.9958648681640624
146,10.339,0.06453758026511147,-0.26564831468134736,-0.05020154779831382,-0.8259527722403179,-0.8151316091880135,,0.879669189453125,-0.5922088623046875,-0.528656005859375
147,10.389,0.9128525125448969,0.06692597652480886,-0.2239365737448598,-0.851198694686449,-0.8322341573769781,,1.745086669921875,-0.22406005859375,-0.69586181640625
148,10.688,-2.8219912892714287,0.9669308775456614,0.658780855356086,-0.8906567863521796,-0.8134158498183037,,-2.008575439453125,0.70245361328125,0.1407012939453125
149,10.738,-1.0111628816941531,-0.3484241850937704,-0.8741573121253673,-0.934868101508551,-0.7480860994675906,,-0.2630767822265625,-0.5839996337890625,-1.494537353515625
150,10.788,-0.5133326185723158,-0.80589149144392,-0.8805445551975746,-0.9541137459593532,-0.7227747572441908,UpperCut,0.209442138671875,-1.0128326416015625,-1.5399169921875
151,10.837,0.06393462129396765,-0.7125562538213672,-0.4232834039957537,-0.9622282078076146,-0.7596585183544698,,0.8235931396484375,-0.8896026611328125,-1.049041748046875
152,10.887,0.07845119990187654,-0.3983874067877179,-0.41062248180732386,-0.983982255234652,-0.8245944543949985,,0.903045654296875,-0.499237060546875,-0.96728515625
153,10.937,0.2524478983342521,-0.21981087492624068,-0.40752238249661116,-0.9850261722400968,-0.8700191426813729,,1.122467041015625,-0.3048095703125,-0.893157958984375
154,10.987,0.027409890434210105,-0.03998867608579504,-0.05897807500655383,-0.827685419372318,-0.3590189425736024,,0.3864288330078125,-0.5637664794921875,-0.83148193359375
155,11.037,-0.031114463612743615,-0.10560857103513555,-0.6378655526828876,-0.8378861472333943,-0.4310320661518061,,0.3999176025390625,-0.59814453125,-1.3939208984375
156,11.087,0.5350932684290532,0.03385875622568918,-0.6496270768469117,-0.8924370933930851,-0.5114612970006343,,1.0465545654296875,-0.3538360595703125,-1.41650390625
157,11.136,1.2331920818891797,0.11021530961469528,-0.49351222162547004,-0.9162349656310282,-0.5766071124467578,,1.8097991943359375,-0.2171173095703125,-1.242095947265625
158,11.445,-2.829552956658917,0.746159985707311,2.124018199914795,-0.881823615923996,-0.5017636500182918,,-2.327789306640625,0.3382415771484375,1.361236572265625
159,11.495,-0.6701495048689998,0.33526248678776355,-0.9040995530111787,-0.9581828992894252,-0.5490710136580623,UpperCut,-0.1210784912109375,0.096099853515625,-1.704925537109375
160,11.555,0.04611684612338973,-0.23641806609924237,-1.1418974471662247,-0.9685811601285804,-0.5819806880562978,,0.6280975341796875,-0.43865966796875,-1.9295501708984375
161,11.605,0.24911374294404276,-0.47010032968316084,-0.1965919727989789,-0.9509644421426054,-0.5897839621340822,,0.838897705078125,-0.719879150390625,-0.9645538330078124
162,11.655,0.32310675804923983,-0.2732241942414745,-0.5505775750059263,-0.9672599675169762,-0.6279583054273226,,0.9510650634765624,-0.470733642578125,-1.3033447265625
163,11.705,0.022013048954357517,-0.3114149364810108,-0.46344926074390014,-0.9606400826268516,-0.6523033572956425,,0.67431640625,-0.52197265625,-1.1915740966796875
164,11.754,-0.18237698247937262,-0.37344278080665466,-0.29776852700836587,-0.9643907840435064,-0.6540871875574976,,0.471710205078125,-0.5735015869140625,-1.027252197265625
165,11.804,0.07639787196506376,-0.4460998808710459,-0.17365791873399317,-0.967282636075161,-0.6523618936599362,,0.728759765625,-0.6383819580078125,-0.906768798828125
166,11.854,0.11728625410932958,-0.3258361814237208,-0.6119285446313462,-0.9883765378155904,-0.6727985847578579,,0.7900848388671875,-0.4383087158203125,-1.3431549072265625
167,11.904,1.2842787969236051,-0.0021861782106356864,-0.48907151483390254,-0.9987175355809732,-0.7146988642092074,,1.9989776611328125,-0.03759765625,-1.1876068115234375
168,12.203,-3.2275353376813474,0.634031890788345,1.4406686221194014,-0.98384364604584,-0.6709557478375973,,-2.55657958984375,0.50128173828125,0.711151123046875
169,12.293,0.43960132799842766,-0.3300885723286707,-1.6274896176579798,-0.9929595568608716,-0.7652479151656348,UpperCut,1.2048492431640625,-0.406341552734375,-2.266693115234375
170,12.343,0.4972171646701634,-0.61564130058787,-0.488110466674743,-0.9864650692731456,-0.7975673812282741,,1.2947845458984375,-0.7145538330078125,-1.0831756591796875
171,12.392,-0.007070684722541909,-0.5693241305829381,-0.7369441957879409,-0.9803770892802478,-0.8216001036678544,,0.8145294189453125,-0.68170166015625,-1.2958221435546875
172,12.442,-0.005077922096044629,-0.3574346678157901,-1.155989238568764,-0.9881016570912132,-0.8559842941663571,,0.8509063720703125,-0.43695068359375,-1.666839599609375
173,12.492,-0.029553994104369763,-0.12809757520136844,-0.7689679985410778,-0.9713557359167926,-0.8939643944949948,,0.864410400390625,-0.234588623046875,-1.2042694091796875
174,12.542,-0.6387696199263903,-0.21598136989640523,-0.5058923587770149,-0.9423097129403742,-0.8993134431685778,,0.2605438232421875,-0.36236572265625,-0.91796875
175,12.592,-0.6650010551151236,-0.09396118242265816,-0.7780737530434205,-0.9242013183583798,-0.9182359183963736,,0.25323486328125,-0.245208740234375,-1.1440887451171875
176,12.642,-0.6350201865610435,-0.0245966204756273,-0.7517969377235308,-0.9094343511181178,-0.929957320350106,,0.2949371337890625,-0.177490234375,-1.0861663818359375
177,12.691,-0.8851643573205138,-0.025128774804373533,-0.4975930060592353,-0.9133853719285496,-0.9283467303673888,,0.043182373046875,-0.17645263671875,-0.8371124267578125
178,12.741,-0.3352716331087451,0.029167897078684113,-0.4820494666374549,-0.9338717799723074,-0.9365442161165576,,0.6012725830078125,-0.09619140625,-0.809417724609375
179,12.791,0.056551191386009614,-0.1345339216597174,-0.9297120731209931,-0.9680601216360112,-0.9270608691608654,,0.983612060546875,-0.2285308837890625,-1.2926483154296875
180,13.008,-4.132498197121665,0.9836397100997691,-6.186708226504757,-0.910243586621842,-0.9298767371607272,,-3.2026214599609375,0.8313140869140625,-6.5215606689453125
181,13.109,-3.413065939860193,0.4692327941514057,2.248483569767715,-0.9492381566113626,-0.9281568822430052,,-2.4849090576171875,0.3521575927734375,1.8951873779296875
182,13.159,-1.3325575449326719,0.255332173288569,-0.5809020739164075,-0.9865261590937836,-0.907081470713922,,-0.42547607421875,0.18646240234375,-0.996185302734375
183,13.209,-0.7550640420958148,-0.4394999314851736,-1.1752951069259443,-0.9764767767681128,-0.8619671182676898,UpperCut,0.106903076171875,-0.5488128662109375,-1.6703338623046875
184,13.258,-0.8022110825072423,-1.208978379343333,-0.2868636457319661,-0.9876992798384676,-0.8187668686400548,,0.0165557861328125,-1.2987518310546875,-0.8539276123046875
185,13.308,-0.5562299416042942,-1.0292630244477308,-1.0789566229657601,-0.9983259971836524,-0.7972272560574192,,0.240997314453125,-1.064178466796875,-1.6816253662109375
186,13.358,-0.5685886160632606,-0.8327943087384617,-1.2856003131367522,-0.9957394093601672,-0.7867892996570106,,0.21820068359375,-0.88970947265625,-1.9001922607421875
187,13.408,-0.6335299564904847,-0.9900668221531174,-0.4629898260438414,-0.9986449647977258,-0.7991946293420472,,0.1656646728515625,-1.0213470458984375,-1.0632476806640625
188,13.458,-0.3339161791574422,-0.6961584798100542,-0.4581978408891876,-0.9999610404974776,-0.8335804857980672,,0.499664306640625,-0.7010345458984375,-1.0105743408203125
189,13.508,-0.6881433504173415,-0.495653359246359,-0.6392964288794276,-0.9991113234329884,-0.890673257643904,,0.2025299072265625,-0.5148162841796875,-1.093536376953125
190,13.558,-0.6616083678129391,-0.16096941279835428,-0.5826530242380163,-0.9994747030043344,-0.9338404234770016,,0.2722320556640625,-0.1725616455078125,-0.940155029296875
191,13.607,-0.7199489908608018,-0.18186021774175146,-0.4636961453703293,-0.9993390006029956,-0.9643337564858018,,0.244384765625,-0.1914825439453125,-0.72821044921875
192,13.657,-0.505567629429925,-0.019518353594824484,-0.49878032206287537,-0.9971236088774664,-0.9808331323596124,,0.4752655029296875,-0.0342864990234375,-0.6930694580078125
193,13.707,-0.40612412693793487,-0.07533637057123713,-0.7400372532011277,-0.9917904174152978,-0.9870414853363724,,0.5809173583984375,-0.095855712890625,-0.8991851806640625
194,13.757,-0.0030845383618941513,-0.17269877038592865,-1.0248766814726475,-0.9800643638905266,-0.9864524582837692,,0.983367919921875,-0.205291748046875,-1.1856536865234375
195,13.807,0.15667845400072788,-0.5154793227873644,-1.328370703430416,-0.970702867152668,-0.9813067754914596,,1.1379852294921875,-0.5617218017578125,-1.5151824951171875
196,14.097,-2.9791144097717863,-0.02673647630051522,0.8670483985407337,-0.9530108124402394,-0.9601629937561612,,-2.018951416015625,-0.11138916015625,0.600738525390625
197,14.147,-1.4203893821369689,-0.17255854930910267,-0.7544979135593326,-0.9216432644367104,-0.9455206077229064,UpperCut,-0.4748687744140625,-0.29888916015625,-1.0545501708984375
198,14.247,-0.7128235860153952,-0.44405971908538633,-1.6068001363865965,-0.9149300604835678,-0.9324891133591452,,0.21966552734375,-0.58984375,-1.9372711181640625
199,14.316,-0.38745804826801833,-0.07860421171687945,-1.6686860975127995,-0.904924373755156,-0.9607460121352058,,0.5732879638671875,-0.1966705322265625,-1.91973876953125
200,14.366,-0.42804438342743356,-0.277428727666611,-1.3391995441510676,-0.8984399371522229,-0.9715319322555586,,0.543487548828125,-0.3814544677734375,-1.5520477294921875
201,14.416,0.23234613703108886,-0.21227900663507904,-1.1673093680272697,-0.871724682139352,-0.9866632623829736,,1.2190093994140625,-0.2920379638671875,-1.3092041015625
202,14.466,0.6610120258750627,-0.29874907864536643,-1.0980869088563896,-0.8391522907537716,-0.9944292583046248,,1.6554412841796875,-0.3560791015625,-1.1865386962890625
203,14.785,-3.125980152286059,-0.13777389019328978,0.4161564396114896,-0.8328954760392517,-0.984653247989184,,-2.141326904296875,-0.2343597412109375,0.2707977294921875
204,14.914,-0.34965216186371517,-0.43104759311898316,-1.8736736892690373,-0.8445839149345241,-0.9905213024887152,UpperCut,0.640869140625,-0.5045928955078125,-1.98968505859375
205,14.964,0.020993831276901243,-0.3277928426094053,-1.4684918071357789,-0.8350349647698371,-0.9978049968480988,,1.018798828125,-0.364227294921875,-1.5237884521484375
206,15.014,0.25738515603333467,-0.11858901092596419,-1.1957592048181749,-0.866786737226006,-0.9996796633026028,,1.2570648193359375,-0.1312103271484375,-1.2176971435546875
207,15.064,-0.38369628118418153,-0.3883850159546488,-1.3611035550808066,-0.9053687371210034,-0.999983512629494,,0.6162872314453125,-0.3908233642578125,-1.366302490234375
208,15.114,-0.047564052614951446,-0.34854653355795945,-1.3136661837213959,-0.88059964618935,-0.9999108543727638,,0.9523468017578124,-0.3548736572265625,-1.3254241943359375
209,15.164,0.7344084873650659,-0.507525845720316,-1.2284994300725116,-0.8286802215868331,-0.9987915858771216,,1.7332000732421875,-0.5350341796875,-1.26922607421875
210,15.452,-3.4585661458282786,0.48396290634475214,1.413961580001383,-0.8128016342438192,-0.9969877766876536,,-2.461578369140625,0.43878173828125,1.350921630859375
211,15.501,-1.9581629350708294,-0.4714279712486648,-0.33399735604960623,-0.7881563613208921,-0.9872461870239544,UpperCut,-0.970916748046875,-0.5694122314453125,-0.45947265625
212,15.551,-1.3452422191459252,-0.5326858913221938,-1.3795797414970867,-0.7245707625180803,-0.9793211986381126,,-0.3659210205078125,-0.672119140625,-1.5261688232421875
213,15.601,-1.0342206360154913,-0.9549074844630198,-1.5253730703309862,-0.7274131040336694,-0.9737347961717412,,-0.06048583984375,-1.11114501953125,-1.6909942626953125
214,15.651,-1.2939603581780723,-1.0449519443315702,-1.3723046381896056,-0.7447472106479072,-0.9786069646233848,,-0.3153533935546875,-1.1822509765625,-1.5255279541015625
215,15.701,-0.5135904767628445,-0.5815078936475226,-1.3206048997046738,-0.6663102245857955,-0.982874534380032,,0.4692840576171875,-0.7189178466796875,-1.443389892578125
216,15.751,-0.7228750634390717,-0.7815980958615656,-1.5575451105412021,-0.5936075384231319,-0.9919943261343842,,0.2691192626953125,-0.8832244873046875,-1.63250732421875
217,15.8,-0.33449904004375886,-0.2410824200095946,-1.1928331525579559,-0.513754398048515,-0.9994618085984464,,0.6649627685546875,-0.26922607421875,-1.209686279296875
218,15.85,-0.32695545409257587,-0.13237375965010226,-1.0015684516871686,-0.5445916393757411,-0.9989677831941384,,0.6720123291015625,-0.17047119140625,-1.02630615234375
219,15.9,0.0236905589018922,0.032566553755827704,-0.44355782827742785,-0.4832173785676301,-0.9973360524262328,,1.021026611328125,-0.0312957763671875,-0.4788055419921875
220,15.95,0.21826385566612594,-0.4450176414796999,-0.7784364259749152,-0.4417617893616378,-0.9940011589823116,,1.2122650146484375,-0.5431365966796875,-0.826751708984375
221,16.0,0.48384478529817354,-0.09959484763619916,-1.2023692922270668,-0.3838063642768921,-0.998226137553389,,1.4820709228515625,-0.154571533203125,-1.2252197265625
222,16.28,-3.519151122123869,-0.16172960230686312,0.7622179063548684,-0.33991317395811,-0.9996809072801192,,-2.51947021484375,-0.18548583984375,0.753631591796875
223,16.33,-1.3119912254269346,-0.4844736416132516,-1.0465568090832948,-0.2755009053933024,-0.9991555320675596,UpperCut,-0.312835693359375,-0.5239715576171875,-1.0578765869140625
224,16.38,-0.772954742825871,-0.8965687044247456,-1.3152153845288665,-0.2866343038818701,-0.9996240543493085,,0.2266693115234375,-0.9228363037109376,-1.3230743408203125
225,16.43,-0.4956237189025744,-0.5543181814811318,-1.138729095681129,-0.2775327890074788,-0.9998351446838244,,0.50421142578125,-0.5717620849609375,-1.143768310546875
226,16.48,-0.07186390801340325,0.18052651065763253,-0.9061604588626063,-0.3060828833791438,-0.9923350994196533,,0.92047119140625,0.0628814697265625,-0.9439849853515624
227,16.529,-0.3241411890569901,-0.04205237916422502,-1.0855470099856255,-0.3498846844248843,-0.9853197779241776,,0.6611785888671875,-0.2019805908203125,-1.1452789306640625
228,16.579,-0.2157794900407637,0.17141620548930886,-1.2211973445045246,-0.3547117838653699,-0.9657642312517012,,0.7499847412109375,-0.071136474609375,-1.3132171630859375
229,16.629,-0.20524515234579577,0.4836120337881889,-1.8263224791001063,-0.2804963425763804,-0.9282370957051708,,0.722991943359375,0.126556396484375,-1.9306640625
230,16.679,0.2275123183772194,0.6364690304140129,-1.2644129551953731,-0.2439884104121973,-0.8955345566227806,,1.123046875,0.204925537109375,-1.37298583984375
231,16.729,0.5042977133224065,0.6318617471471781,-0.6354411247011728,-0.1927350969122962,-0.8905081948807185,,1.394805908203125,0.1854248046875,-0.7231292724609375
232,16.779,0.7952867320966756,0.4912246945685269,-0.7444670264275598,-0.0828579317754173,-0.906846446614262,,1.7021331787109375,0.0712127685546875,-0.779388427734375
233,17.01,-5.6677794972162,2.2169333489829617,0.5611588825222243,-0.1141340553595373,-0.9290557423333872,,-4.7387237548828125,1.8494110107421875,0.5189361572265625
234,17.078,-3.246619329448837,0.1942840557073397,0.4858245394145449,-0.1166312481048596,-0.9538184261285244,,-2.2928009033203125,-0.1040496826171875,0.4507904052734375
235,17.127,-1.155012664811069,-0.2654298220991654,-1.9504078309647956,0.0167193226402718,-0.9494615173501316,UpperCut,-0.2055511474609375,-0.5792694091796875,-1.945159912109375
236,17.246,0.21665706927569595,0.015869277562041262,-1.952509202704748,-0.0582398193790044,-0.921831700255554,,1.13848876953125,-0.371063232421875,-1.9750823974609375
237,17.296,-0.041137487856290345,0.2080726474311354,-1.6115792444211103,-0.1208730887390965,-0.8830411743797278,,0.8419036865234375,-0.257781982421875,-1.668304443359375
238,17.346,-0.40520666536764705,0.3982839841255934,-1.5201735606085365,-0.1353279934947121,-0.8359775393910845,,0.4307708740234375,-0.1454315185546875,-1.5944366455078125
239,17.395,-0.1888504246252306,0.47617404266764396,-1.1128100681544046,-0.1553613679505251,-0.8023605564611681,,0.6135101318359375,-0.1134185791015625,-1.205535888671875
240,17.445,0.02937988202456321,0.7059214099450691,-1.0431043984490833,-0.1563976822810193,-0.7609490974676243,,0.7903289794921875,0.065093994140625,-1.1445770263671875
241,17.495,0.41650847137584335,0.9003560183135951,-0.6160448948160632,-0.091227006185787,-0.7308151370225942,,1.1473236083984375,0.2206268310546875,-0.678314208984375
242,17.545,0.6831851572646317,1.2310345738705437,-0.7029973824670975,0.0108185729605737,-0.7109035878525558,,1.3940887451171875,0.5277862548828125,-0.6953887939453125
243,17.613,1.4530553826439216,1.6638992115386075,-2.5653566998519723,0.1522550722345122,-0.8141260138404534,,2.267181396484375,1.0899810791015625,-2.4769439697265625
244,17.855,-2.8255362098203207,0.7238570517917521,0.8256384053154227,0.1461847362226185,-0.8362783973203207,,-1.9892578125,0.1814422607421875,0.905792236328125
245,17.905,-1.2937041604394068,0.17488554397417055,-1.8716758052698703,0.2501401681888845,-0.8284941995019068,,-0.4652099609375,-0.3673095703125,-1.731597900390625
246,18.093,0.128783800451448,0.7762318763827113,-2.137667506300536,0.2100456860411483,-0.781860730798552,UpperCut,0.91064453125,0.16668701171875,-2.0067138671875
247,18.143,0.07940948067404097,0.7533893918234481,-1.5885872733116584,0.1528609651150346,-0.739041447060334,,0.818450927734375,0.087646484375,-1.4856109619140625
248,18.193,0.18936536272581506,0.6902006961709263,-1.0733157355140377,0.0899851671413791,-0.7145195249694973,,0.9038848876953124,-0.0065765380859375,-1.0103607177734375
249,18.243,0.20194449473582887,0.735883761374774,-0.7481771380141504,0.0897886257336685,-0.6682642454985461,,0.870208740234375,-0.005035400390625,-0.6813812255859375
250,18.293,0.37247666695247106,1.0876952580003065,-1.0496777598249956,0.090660661899625,-0.6832026543365914,,1.0556793212890625,0.3604736328125,-0.9834747314453124
251,18.342,0.2790295057856097,0.9551215037480844,-0.9064228554942071,0.1220846070497281,-0.7276385850347028,,1.0066680908203125,0.2742919921875,-0.8226776123046875
252,18.392,0.3455851211113523,0.7164693789763744,-1.3904273226080364,0.2050401597517638,-0.8103291855292727,,1.155914306640625,0.1429443359375,-1.2702789306640625
253,18.673,-2.9773563356045996,0.32108157355935185,0.1765856149291611,0.2470655600214373,-0.8573917359952244,,-2.119964599609375,-0.1776275634765625,0.303741455078125
254,18.722,-1.181053410163564,-0.08749774987662629,-1.688818404946094,0.3620873718289615,-0.8572008711010638,UpperCut,-0.3238525390625,-0.567535400390625,-1.502349853515625
255,18.782,-0.07075138588720642,0.49272921209979326,-2.3874773083472105,0.4264731139036717,-0.8119775821762689,,0.7412261962890625,-0.03521728515625,-2.1385498046875
256,18.832,0.29980401253052713,0.41411532322393396,-1.1082263534358967,0.4166900368177909,-0.8009650304382229,,1.10076904296875,-0.1301422119140625,-0.8587493896484375
257,18.882,0.2657942541971061,0.9040936939632542,-1.878774474816186,0.3776341015800478,-0.7549271813497689,,1.020721435546875,0.296844482421875,-1.6311187744140625
258,18.932,0.41327305057262265,0.5262402995856842,-1.010836798933775,0.3751469750241173,-0.7104452111461274,,1.12371826171875,-0.1261138916015625,-0.746826171875
259,18.982,0.06985284463701191,0.479843009721984,-1.970218542518424,0.3202661427245784,-0.6819019161051756,,0.7517547607421875,-0.21307373046875,-1.7359619140625
260,19.031,0.8411195007573921,1.0757099418210703,-1.6236654226665495,0.5534433495760755,-0.5791075500238579,,1.42022705078125,0.396697998046875,-1.1724700927734375
261,19.081,0.24656872604799263,0.8100354044169112,-1.5000459639167998,0.5919527867582716,-0.5049571528582574,,0.75152587890625,0.1143646240234375,-0.989105224609375
262,19.131,0.5600226757082565,0.7801270922040229,-1.256090961034361,0.6025151323445674,-0.4530693653073686,,1.013092041015625,0.068634033203125,-0.718963623046875
263,19.181,0.9134502735145732,0.5999183506037383,-1.2065589758236586,0.5876662040392395,-0.5029315624229268,,1.4163818359375,-0.0994110107421875,-0.6986236572265625
264,19.439,-2.9440312585366506,0.49881140076232866,1.1681649962790543,0.6732199746104107,-0.450333138419463,,-2.4936981201171875,-0.161407470703125,1.769256591796875
265,19.489,-0.3016763164842733,0.1913152447398263,-2.0455672111407655,0.7229038599330198,-0.4413094951952108,,0.1396331787109375,-0.4287109375,-1.3968658447265625
266,19.539,0.08213049485789914,-0.02569098267619896,-2.355087840583935,0.7330781410409768,-0.4215773908842883,UpperCut,0.5037078857421875,-0.6424407958984375,-1.690338134765625
267,19.588,0.2647361962265336,0.2691316152900295,-1.6275651422656856,0.7355844715471821,-0.3532600195937789,,0.6179962158203125,-0.3646240234375,-0.9394073486328124
268,19.638,0.375065505954432,0.8230267069138255,-1.3196136735722273,0.7333826615364356,-0.306727706936193,,0.681793212890625,0.1759796142578125,-0.62158203125
269,19.688,0.2256061639466051,0.7036004482327021,-2.050069813058113,0.7273364391766003,-0.2758434210143324,,0.5014495849609375,0.0439453125,-1.3509521484375
270,19.738,0.2544060514211016,0.5766093916841925,-2.3534346486757536,0.7215470839739129,-0.2612799837351484,,0.51568603515625,-0.091705322265625,-1.656951904296875
271,19.799,0.6995552293455152,0.6652877399198619,-2.7500589436670144,0.768687651981452,-0.1860801466310473,,0.8856353759765625,0.036834716796875,-1.9947967529296875
272,19.849,0.7570722008998598,0.5232129846346645,-2.0082614089923085,0.7748722153863141,-0.1552355383579526,,0.9123077392578124,-0.1012420654296875,-1.2427825927734375
273,19.899,0.7871616034355705,0.5318821206086201,-2.193202421946051,0.7951527306979853,-0.108636126056617,,0.8957977294921875,-0.0709381103515625,-1.4027557373046875
274,19.949,0.8972531074634604,0.41965121434618036,-1.9196222920876096,0.8205001361793771,-0.100625920856852,,0.9978790283203124,-0.1490936279296875,-1.1032867431640625
275,19.998,1.502521264684065,0.5470971672773128,-1.7852641953317185,0.848418858560103,-0.142559301722185,,1.64508056640625,0.0231781005859375,-0.9455108642578124
276,20.277,-2.5508192438077355,0.6489081066892869,0.11335985165542894,0.8425792981874652,-0.2231520074796107,,-2.327667236328125,0.1239166259765625,0.9346923828125
277,20.327,-0.4660067764730508,0.04702408076725617,-1.6951438601041242,0.8760337379835608,-0.2383609024496133,,-0.2276458740234375,-0.42132568359375,-0.8443603515625
278,20.377,0.3118394969302967,-0.3886465318514098,-3.0173075583455313,0.9285269439134062,-0.2511030079525158,UpperCut,0.5629425048828125,-0.748016357421875,-2.1185302734375
279,20.427,0.4328754540651616,-0.1762831481427528,-1.8464976674910605,0.9252657531929208,-0.2377788428098384,,0.670654296875,-0.5447235107421875,-0.9477691650390624
280,20.477,0.8828872536333277,0.35993952479742464,-2.2389018482228726,0.9424055463042068,-0.1481796408979224,,1.03106689453125,0.0291595458984375,-1.3069000244140625
281,20.527,0.6228008132834157,0.15623984129232782,-2.1566995389120716,0.9497405502609668,-0.0744495529275218,,0.6972503662109375,-0.1559295654296875,-1.2095947265625
282,20.577,0.5127970053724045,0.04548001803882684,-2.500236232093072,0.946279007357828,-0.0330403969713455,,0.54583740234375,-0.2776947021484375,-1.554473876953125
283,20.626,0.7871796711663125,-0.06953602110140245,-2.293165836426107,0.964426821755486,0.061273299096,,0.7259063720703125,-0.3333892822265625,-1.3305511474609375
284,20.676,1.2413260281736511,0.6200567885007617,-2.8347491553076596,0.9902482408192718,0.1763235867674012,,1.06500244140625,0.4829254150390625,-1.860015869140625
285,20.726,1.4824391426248562,0.4949683290844474,-2.1048588347338564,0.993065318683246,0.2823201240701686,,1.2001190185546875,0.3821868896484375,-1.152191162109375
286,20.776,1.5641030778601113,0.5204157638076723,-1.754982539036483,0.9835088010265892,0.2881936540319863,,1.275909423828125,0.34722900390625,-0.813201904296875
287,20.826,1.9709673420099154,0.40533473266014364,-2.356658485328543,0.9838021416436824,0.2391253009942905,,1.731842041015625,0.2312774658203125,-1.401397705078125
288,21.013,-7.024323937764058,1.5515726844287565,-2.3130292863059845,0.9361875151458264,0.227324011454692,,-7.25164794921875,1.2092742919921875,-1.4013519287109375
289,21.095,-2.1763894756376954,0.33692586498062205,0.4402134984123811,0.9493039250706006,0.1856405536591795,,-2.362030029296875,0.0280303955078125,1.373016357421875
290,21.145,0.1433009011351437,-0.5579974059775504,-2.5771688933785475,0.9761328346208789,0.1947993142210812,,-0.0514984130859375,-0.7710113525390625,-1.6197357177734375
291,21.195,0.4672893123360903,-0.5446410963173037,-2.8864268874553147,0.9746287844994358,0.2288707332345278,UpperCut,0.2384185791015625,-0.7625274658203125,-1.9376678466796875
292,21.244,1.2474697419487808,-0.14784573845090018,-2.2870058023877684,0.981557583445294,0.2634304353081557,,0.984039306640625,-0.3322601318359375,-1.340118408203125
293,21.294,1.3559984676006092,-0.00244003911169971,-1.7965957410230822,0.967728214273098,0.3025011531474842,,1.053497314453125,-0.2426300048828125,-0.87420654296875
294,21.344,1.2427970158584283,0.16265567116384255,-2.236426291842033,0.9625629273400548,0.3354483830459283,,0.9073486328125,-0.0926971435546875,-1.3296356201171875
295,21.394,1.3126885100214885,0.07572347912084959,-1.6549326228338423,0.942627526469299,0.3461205168574261,,0.9665679931640624,-0.23748779296875,-0.77056884765625
296,21.444,1.1435428910964411,0.16595065014316462,-1.683355185938502,0.9366153147961458,0.3656956010573787,,0.7778472900390625,-0.1601409912109375,-0.811614990234375
297,21.494,1.1905332895075071,0.14016920420731754,-1.8135749700637178,0.9366949089327906,0.3919493051325072,,0.798583984375,-0.1819610595703125,-0.9518280029296876
298,21.543,1.255734589078071,0.03433108986951672,-1.7725863657326946,0.9521050090626588,0.4244967961093209,,0.83123779296875,-0.242523193359375,-0.9105224609375
299,21.593,1.683806008792779,0.16616758946970359,-1.8535778765808106,0.9710674371555214,0.4813523955115292,,1.20245361328125,-0.04315185546875,-1.002410888671875
300,21.922,-2.178824036879936,0.9511668000596794,-0.6708235728413885,0.9677343246475528,0.4198087756200641,,-2.5986328125,0.72247314453125,0.2075042724609375
301,21.972,0.3082302801505311,-0.1739689846735924,-2.9740672250807862,0.994952384552222,0.4837368719474061,,-0.175506591796875,-0.2617950439453125,-2.103271484375
302,22.072,1.8498003544404558,-0.1872052961113099,-2.843056404656419,0.9998736397837792,0.5681688847138933,UpperCut,1.2816314697265625,-0.200286865234375,-2.0202484130859375
303,22.122,1.6156654139724158,-0.40335516037416186,-1.8211075303624118,0.9970096030850089,0.6113776942458532,,1.0042877197265625,-0.464508056640625,-1.032135009765625
304,22.171,1.3378227925615545,-0.020358730004026798,-2.402932259631354,0.9910083306906968,0.693703529866242,,0.6441192626953125,-0.116729736328125,-1.68914794921875
305,22.221,1.822813118513107,-0.0067682076094042615,-2.01005450265683,0.9957358180448652,0.7581311116771694,,1.0646820068359375,-0.066925048828125,-1.3607330322265625
306,22.271,1.7139295304566073,0.016174556214279837,-1.8693400626147798,0.9972303515309132,0.8146222794800447,,0.8993072509765625,-0.0269622802734375,-1.29095458984375
307,22.321,1.8861268954558157,0.08712851440504141,-1.3910868353597556,0.9979305625310086,0.8489412265105033,,1.0371856689453125,0.0531463623046875,-0.8636932373046875
308,22.371,1.6913316912549559,0.10157061690388226,-1.4135393799594014,0.999554637587263,0.8690508074658932,,0.8222808837890625,0.0868072509765625,-0.919036865234375
309,22.421,2.115656218454792,0.10545806270422362,-1.288696765496053,0.999999275377929,0.8671058034157294,,1.2485504150390625,0.1048583984375,-0.7905731201171875
310,22.471,2.497918986076941,0.09491536266323085,-1.7982374174679054,0.9993811585810676,0.8364504802175659,,1.661468505859375,0.0756378173828125,-1.2505340576171875
311,22.74,-1.3201380792361963,0.48636193518295334,-0.10558959155345604,0.9904758071303988,0.8247136053341162,,-2.1448516845703125,0.4084930419921875,0.4545745849609375
312,22.79,0.9886186449561554,-0.5720204544913974,-1.4889952257697079,0.979490330262645,0.8269365160499054,,0.16168212890625,-0.6853179931640625,-0.938232421875
313,22.849,1.8628638812152092,-0.45747882357648645,-2.7260463626354223,0.9725764468404952,0.8568061419573968,UpperCut,1.0060577392578125,-0.5774078369140625,-2.22454833984375
314,22.899,2.1223481982000525,-0.5409017010472069,-1.1583073767769152,0.9609117949334242,0.8621248095281777,,1.260223388671875,-0.681182861328125,-0.671417236328125
315,22.949,2.0594558645919436,-0.18315416226711234,-1.72342724267517,0.967918556365114,0.8916854788497559,,1.1677703857421875,-0.2968902587890625,-1.2852935791015625
316,22.999,1.6429801116394738,-0.4596754482487406,-1.6129878592418052,0.9856315735085004,0.9184012542175988,,0.724578857421875,-0.5265045166015625,-1.2230224609375
317,23.049,1.6189227994801718,-0.030520705719854387,-1.5158275229085003,0.9894575993321064,0.9516406949879842,,0.6672821044921875,-0.07501220703125,-1.21185302734375
318,23.099,1.3953883977562287,-0.1812594098034445,-1.2886404732170584,0.991861732399242,0.9696834417015412,,0.4257049560546875,-0.212371826171875,-1.0462646484375
319,23.148,1.4769054012444731,0.0433736174661397,-1.560699937356797,0.985551273013124,0.985358770385098,,0.491546630859375,0.014495849609375,-1.392669677734375
320,23.198,1.3507132360808587,-0.04915880890087196,-1.1752312696190763,0.9833684726760276,0.9921622106902336,,0.358551025390625,-0.0718536376953125,-1.0523529052734375
321,23.248,1.3909963188354826,0.07328716273498334,-0.8810329916073969,0.9845970930549296,0.9963735161011076,,0.394622802734375,0.05841064453125,-0.7972564697265625
322,23.298,1.8484533827391658,0.10193452865488303,-0.8577782087063973,0.9745055303926536,0.9980047743407284,,0.8504486083984375,0.0877685546875,-0.7962493896484375
323,23.348,2.1251241167628363,0.048189127068275356,-1.376231889340022,0.9621788364193896,0.9964162310206486,,1.1287078857421875,0.025146484375,-1.2948455810546875
324,23.647,-1.6997878363182868,-0.027448158616144684,1.1906157423447599,0.9450992643364472,0.9936630914160882,,-2.693450927734375,-0.064178466796875,1.296844482421875
325,23.737,1.6838035955459691,-0.5607929242844366,-2.108096501272147,0.9292421262948766,0.9960136785537816,UpperCut,0.6877899169921875,-0.59375,-2.02520751953125
326,23.786,2.305775859024946,-0.3400475297248286,-1.3941254553425497,0.9105077930707708,0.9999744674233836,,1.3058013916015625,-0.3430023193359375,-1.3876190185546875
327,23.836,2.4751518745097814,-0.16424320549876897,-1.3382144890197307,0.9228391223849164,0.997689105955094,,1.4774627685546875,-0.1904144287109375,-1.2755126953125
328,23.886,1.7255630577990755,-0.19257619868045378,-1.8954258182502273,0.9347344781016664,0.9902725304553256,,0.73529052734375,-0.2420196533203125,-1.7653656005859375
329,23.936,1.6102890945193558,0.03224075363957045,-1.8693540407813765,0.9562499607771672,0.9792771316287308,,0.631011962890625,-0.027008056640625,-1.675689697265625
330,23.986,1.3503728706171247,-0.33209210929299765,-0.9985358947953635,0.980395310509703,0.9750066596796246,,0.3753662109375,-0.3758697509765625,-0.7807159423828125
331,24.036,1.3811261607508436,-0.01002041276353341,-1.5933601769648218,0.9743131282749128,0.9501569224695936,,0.43096923828125,-0.080230712890625,-1.2895965576171875
332,24.085,1.2360859412626344,0.052712049832572994,-1.510358724214088,0.9687568888878684,0.9270649451688844,,0.30902099609375,-0.0402679443359375,-1.1471710205078125
333,24.135,1.3448685719575109,0.23552278716728287,-1.431376790606027,0.9528535855045852,0.8932389332856359,,0.451629638671875,0.0991058349609375,-1.00299072265625
334,24.185,1.40832698232824,0.3449617909927893,-1.1492271899859046,0.9352966480877748,0.865327714750115,,0.542999267578125,0.1676025390625,-0.680450439453125
335,24.235,1.580449828551724,0.5626141374466338,-1.0833656319492064,0.9048436160595904,0.845800170348599,,0.734649658203125,0.335479736328125,-0.6006317138671875
336,24.285,1.9032843265271353,0.8177761166117743,-1.3372736941414187,0.8549615240511974,0.8620093021130728,,1.0412750244140625,0.5548553466796875,-0.903900146484375
337,24.335,2.4775130876394607,0.7218058054303464,-2.3782615917949768,0.8896592827888538,0.9155624040457108,,1.56195068359375,0.5381622314453125,-2.0204620361328125
338,24.594,-1.7366811022229065,1.0411364919946213,-0.2841299164800443,0.842490794738604,0.9068430676989684,,-2.643524169921875,0.8140869140625,0.070953369140625
339,24.713,1.6083859128848106,-0.6706443531055424,-2.3801790930421416,0.8415797883744259,0.8833492917910606,UpperCut,0.72503662109375,-0.9238128662109376,-1.9857177734375
340,24.763,1.9558761794505783,-0.18091431973935523,-2.0431578472322878,0.8110418895374444,0.8406723220287032,,1.115203857421875,-0.497711181640625,-1.60394287109375
341,24.813,1.8807626258545078,0.17174790163318154,-1.9915375121223677,0.8459135985827183,0.7802377235107578,,1.10052490234375,-0.161834716796875,-1.462432861328125
342,24.863,1.6229989103816256,0.2458017220156416,-1.830063755733286,0.8821514604726263,0.7168252043269379,,0.9061737060546876,-0.08258056640625,-1.2149810791015625
343,24.913,1.418155476947886,0.12972333049980445,-1.563558653010014,0.9180421042007816,0.6781347249947609,,0.740020751953125,-0.1616668701171875,-0.88885498046875
344,24.963,1.3680353422640388,0.13343273311468515,-1.537582998956435,0.9452871725609532,0.6446619291781012,,0.7233734130859375,-0.115966796875,-0.81494140625
345,25.012,4.389904667380801,5.669966427766109,-4.292794609750674,0.9667835741163584,0.5959746136698635,,3.7939300537109375,5.4647216796875,-3.5164642333984375
346,25.062,0.717465308651885,-0.1474001612419646,-1.6959973677454359,0.995880478473927,0.69686594341751,,0.020599365234375,-0.212432861328125,-0.98175048828125
347,25.112,0.829328801828738,-0.27324611277007593,-2.0344636060387624,0.997758830508988,0.658674504953738,,0.170654296875,-0.3235931396484375,-1.283721923828125
348,25.162,1.0792246346880574,-0.24448782978959754,-1.4142958727345327,0.9975792111917088,0.6535807137896199,,0.4256439208984375,-0.297119140625,-0.659271240234375
349,25.212,1.0243302659770028,-0.09957079561790602,-1.4809203535212832,0.9897482903282092,0.6231461839457528,,0.40118408203125,-0.211273193359375,-0.7068328857421875
350,25.262,1.0572317159555698,-0.10040798806325169,-1.6523458877520523,0.983555704238876,0.6139638936899449,,0.443267822265625,-0.2429656982421875,-0.8759918212890625
351,25.312,1.0616836315702902,0.031951592311611376,-2.000012988202243,0.9606942973083672,0.6114578014921652,,0.450225830078125,-0.187713623046875,-1.239837646484375
352,25.361,0.9673987246216619,-0.008126734691961401,-1.7280182463926614,0.9518953507046864,0.6364508486450994,,0.3309478759765625,-0.244476318359375,-0.993804931640625
353,25.411,0.8505757318631029,-0.048356785695833765,-1.6540043552283845,0.9473218623001766,0.6728566156521654,,0.1777191162109375,-0.2852935791015625,-0.9532012939453124
354,25.461,0.71321670595785,-0.22617076207889159,-1.5235538722582187,0.9514524060543303,0.71407119814535,,-0.0008544921875,-0.441650390625,-0.8574676513671875
355,25.511,0.8759684017921892,-0.04464577430998837,-1.8183681703743282,0.9375107964857976,0.7357401303078142,,0.140228271484375,-0.280303955078125,-1.1834259033203125
356,25.561,0.984827225441321,0.05765280740148532,-1.8665761498937443,0.9164728143007989,0.7402746131366335,,0.2445526123046875,-0.211334228515625,-1.25042724609375
357,25.611,0.9445723272805033,-0.0013391627782434745,-1.49337528358099,0.9212230787764052,0.7600020147805033,,0.1845703125,-0.254180908203125,-0.8946533203125
358,25.66,0.8980214327530326,-0.0202057398801892,-1.3390861604168587,0.930820968249379,0.7840840548233451,,0.1139373779296875,-0.247039794921875,-0.7613677978515625
359,25.71,0.8308835802636191,0.017111316986876457,-1.3476375868575303,0.936652813613414,0.7985044298729941,,0.032379150390625,-0.1937408447265625,-0.783782958984375
360,25.76,0.6696262857822604,0.05883984171007872,-1.5697249497856496,0.9422136414562068,0.8026218912510104,,-0.13299560546875,-0.1409912109375,-1.0077056884765625
361,25.81,0.8214281670596996,0.15392060522703174,-1.3329155991929404,0.9389421346664376,0.7942980401065746,,0.027130126953125,-0.05511474609375,-0.762481689453125
362,25.86,0.921962431790151,0.16364927613343344,-1.0938277531738807,0.9281582087941612,0.784694365383901,,0.13726806640625,-0.0670623779296875,-0.5184783935546875
363,25.91,1.2893030048451628,0.3160871420098753,-1.1208161217231472,0.908076198865822,0.7643701435170377,,0.524932861328125,0.046051025390625,-0.535308837890625
364,26.229,-1.761961018588062,0.029194474550886196,0.43057364147713895,0.9004729563998349,0.7790393476228754,UpperCut,-2.5410003662109375,-0.2434844970703125,0.995147705078125
365,26.278,0.834672308031589,0.07869459076383528,-2.037264856253586,0.8667204176054712,0.732194280687839,,0.10247802734375,-0.2610321044921875,-1.4469451904296875
366,26.328,1.57249667474682,0.1209344352735236,-2.4671262541071517,0.8743988357011768,0.7288229686921326,,0.8436737060546875,-0.2112884521484375,-1.8684234619140625
367,26.378,1.4386877676270342,-0.2830845078094315,-1.7697373765930933,0.878202073776689,0.7096380850098467,,0.7290496826171875,-0.6200714111328125,-1.1509857177734375
368,26.428,1.2593995556353514,-0.23895368267414863,-2.110444237921876,0.8588236260179773,0.6560365185259764,,0.603363037109375,-0.625579833984375,-1.4622650146484375
369,26.478,1.4511698249738219,0.13327579420089447,-2.2003321962874813,0.8559544667126936,0.6259745124738219,,0.8251953125,-0.2699432373046875,-1.5328216552734375
370,26.528,1.305707424138214,0.1285802450811051,-1.680797098816977,0.845183742460242,0.5730108909350891,,0.732696533203125,-0.3094482421875,-0.988128662109375
371,26.578,1.1453424426542687,0.298105551187469,-1.8166048757158066,0.8522163353857687,0.5243249865995813,,0.6210174560546875,-0.14739990234375,-1.0909271240234375
372,26.627,0.9363430972245832,0.24898802387228336,-1.8089004888095166,0.8506211203469912,0.4677456851152082,,0.468597412109375,-0.215728759765625,-1.05706787109375
373,26.677,0.8499145142237896,0.4189085865138293,-2.143768713536512,0.8528818063293736,0.4189757935206646,,0.430938720703125,-0.0551605224609375,-1.369354248046875
374,26.727,0.5758272363325784,0.3074043115936435,-1.8690400469453001,0.8590598452803926,0.3742738916060159,,0.2015533447265625,-0.167266845703125,-1.072418212890625
375,26.777,0.6815503159651033,0.4323419678468754,-1.7399438679587693,0.8452140457028309,0.3466198960432283,,0.334930419921875,-0.0689544677734375,-0.9471282958984376
376,26.827,0.6615073693167945,0.4407208596352131,-1.6874106533763786,0.8478863285817019,0.3375785363089821,,0.3239288330078125,-0.0583343505859375,-0.8892974853515625
377,26.877,0.5217835753708414,0.4513723083257237,-1.7341266142456275,0.8430562069395547,0.3392121642380289,,0.1825714111328125,-0.0545654296875,-0.9410552978515624
378,26.926,0.4720889770277335,0.4000733882370029,-1.7207330604480817,0.8437169340191547,0.3573428832777335,,0.11474609375,-0.1012725830078125,-0.9327239990234376
379,26.976,0.4043350801639938,0.28330114171035614,-1.808698109648008,0.84040633351559,0.3794479952030563,,0.0248870849609375,-0.2181243896484375,-1.0311431884765625
380,27.026,0.3930176714415347,0.2764460321943105,-1.867435368396218,0.8329869017111508,0.4065216997618472,,-0.0135040283203125,-0.22906494140625,-1.10638427734375
381,27.076,0.3703910674806253,0.27545875939812464,-1.7033642129334114,0.8359684849780188,0.4249717559571878,,-0.0545806884765625,-0.2212982177734375,-0.9466400146484376
382,27.126,0.1833847748586575,0.28527217971723423,-1.4252471385016072,0.8370117103477166,0.429890512163345,,-0.2465057373046875,-0.208770751953125,-0.669525146484375
383,27.176,0.33504255304822605,0.5071099810323324,-1.2857245029931204,0.8167028421532938,0.4205070305872885,,-0.0854644775390625,-0.016448974609375,-0.54473876953125
384,27.225,0.4070626147639228,0.6213409672834531,-1.2989747930374755,0.7726171898675864,0.4075814135920478,,-0.000518798828125,0.041595458984375,-0.59344482421875
385,27.275,1.0382017437831543,0.5684458581363359,-1.4235574680827208,0.7105212452593241,0.4273619000331544,,0.61083984375,-0.0677337646484375,-0.78118896484375
386,27.325,2.3135446422609753,0.8186619575904903,-2.0119505961045285,0.6380285459828176,0.4078439586672252,,1.90570068359375,0.1156005859375,-1.4293975830078125
387,27.594,-1.7239687624414854,0.3440036237433711,0.2607008208044729,0.6202396488761468,0.4689328488866395,,-2.192901611328125,-0.34881591796875,0.8085174560546875
388,27.644,-0.0017350219710590975,0.02780541704268824,0.04163650359955029,-0.8316098747387867,-0.0346329711898091,,0.03289794921875,-0.5272216796875,-0.7894744873046875
389,27.694,0.3465250692119666,0.39798505328285727,-0.45552359781457175,-0.8621518316980178,-0.1176167764911584,UpperCut,0.464141845703125,-0.1051483154296875,-1.3116912841796875
390,27.744,0.5296438630253925,0.7344109139396082,-1.0783072016770596,-0.8828076636257352,-0.227909237560545,,0.7575531005859375,0.27703857421875,-1.9378814697265625
391,27.794,0.34352062821041573,0.0903444749136092,-0.49793303835768143,-0.8870803606146492,-0.2445531022583343,,0.58807373046875,-0.3572540283203125,-1.3580780029296875
392,27.844,0.2832077374487982,0.37925609804198823,-0.7482093932988081,-0.881258183993572,-0.3235122332543268,,0.606719970703125,-0.067962646484375,-1.5820770263671875
393,27.893,0.128480517063494,0.27380693427766445,-0.9982128596158168,-0.9017339297161086,-0.378385938014631,,0.506866455078125,-0.1263427734375,-1.8329010009765625
394,27.943,0.20333240809019731,0.25516643790644966,-0.7640667804318105,-0.9167683525697066,-0.4258179825348027,,0.629150390625,-0.106231689453125,-1.59356689453125
395,27.993,0.05765250872579597,0.2951667736932257,-0.5366689477896792,-0.909890280986398,-0.4660749082663915,,0.5237274169921875,-0.071868896484375,-1.3416900634765625
396,28.043,-0.11751746373124572,0.3637957075395166,-0.3523011888552179,-0.8890232838025913,-0.4985904617781207,,0.381072998046875,-0.0330963134765625,-1.1229400634765625
397,28.093,-0.27789068071658585,0.3240666767505345,-0.2884941660841157,-0.869642394665306,-0.5124945625525233,,0.2346038818359375,-0.099853515625,-1.035247802734375
398,28.143,-0.3095687391047448,0.38601448742768696,-0.08914607026475163,-0.847941736357943,-0.5252517225031823,,0.2156829833984375,-0.0650634765625,-0.810699462890625
399,28.192,-0.2843062246224347,0.39681389775052195,-0.1105045161316014,-0.835326052262095,-0.5247542226693097,,0.240447998046875,-0.0711669921875,-0.8215789794921875
400,28.242,-0.28089572522831885,0.34766639624187945,-0.12789382600950694,-0.8194901909763534,-0.5062527808923813,,0.2253570556640625,-0.1465606689453125,-0.8346099853515625
401,28.292,-0.3803258455229865,0.25749792957688233,-0.23129893284734415,-0.8201981440131773,-0.4834447420073615,,0.103118896484375,-0.2432861328125,-0.94927978515625
402,28.342,-0.3751688571312234,0.31580417730316646,-0.05470790315783092,-0.8251050078712706,-0.4635782809593484,,0.088409423828125,-0.1847991943359375,-0.785797119140625
403,28.392,-0.4671906618621782,0.30277746670554995,-0.04015156053984703,-0.845783491951091,-0.4375886110809282,,-0.02960205078125,-0.1769561767578125,-0.8006591796875
404,28.442,-0.4250318279958502,0.28305125700328837,-0.14608296630757978,-0.8895768082849429,-0.4176465740896002,,-0.00738525390625,-0.131988525390625,-0.9543609619140624
405,28.491,-0.4696080649791729,0.2609782949933337,-0.2893231813784046,-0.9207876575354867,-0.4206578696666729,,-0.0489501953125,-0.0928955078125,-1.1246795654296875
406,28.541,-0.3186201658134189,0.24432981041151547,-0.10490808452306677,-0.9300231179620844,-0.4455885496024814,,0.1269683837890625,-0.0846710205078125,-0.9375
407,28.591,-0.5206056858223325,0.19708642250177338,-0.15853563912876945,-0.9335011867584498,-0.4870210910957699,,-0.0335845947265625,-0.1160888671875,-0.973846435546875
408,28.641,-0.39002470739107387,0.35668830885822367,-0.12153735474488658,-0.928349985830562,-0.5592904544613864,,0.1692657470703125,0.048553466796875,-0.89111328125
409,28.691,-0.34824556584121147,0.31653583670707597,-0.013242770038111251,-0.9285096527852924,-0.611749594161524,,0.2635040283203125,0.0228118896484375,-0.74774169921875
410,28.741,-0.05870306373746603,0.509035042412343,-0.40567538087967214,-0.942791613759204,-0.6408106076827785,,0.5821075439453125,0.2530975341796875,-1.12945556640625
411,28.791,0.3139016597033383,0.38338132552101784,-0.7002650764729885,-0.94872127986128,-0.6170065434216617,,0.930908203125,0.134613037109375,-1.446868896484375
412,28.84,1.1282117099333675,0.3206872386556045,-1.1660800118103773,-0.9421368757186648,-0.5768664150666324,,1.705078125,0.0468597412109375,-1.9356536865234375
413,29.017,-5.477759560012465,1.1073555502776395,1.1850036930887589,-0.9173976502945894,-0.4442360004421521,,-5.0335235595703125,0.7508087158203125,0.36309814453125
414,29.08,-2.8558031606887386,0.5700617560991682,1.3903763559223905,-0.9408662511812844,-0.4176012563918637,,-2.438201904296875,0.262237548828125,0.5354766845703125
415,29.129,-1.0404289649330625,0.05821247412409297,-0.9147025613627985,-0.970735963460994,-0.3999260352455624,,-0.6405029296875,-0.161895751953125,-1.8044281005859375
416,29.179,-0.1943155061510764,-0.1049630828209463,-0.4174358344758363,-0.9819864561646392,-0.4037118684557639,,0.2093963623046875,-0.27783203125,-1.3158416748046875
417,29.229,-0.2451295306069558,-0.008141694850647113,-0.49196326607616325,-0.9846508714894506,-0.4324616839272683,,0.1873321533203125,-0.1655120849609375,-1.3797760009765625
418,29.279,-0.3246001093640796,-0.23620979719646354,-0.4386008112682781,-0.988635602358976,-0.4574736445203296,,0.13287353515625,-0.3698883056640625,-1.317718505859375
419,29.349,-0.3285782826094512,0.153919021363576,-1.2520705919605932,-0.998810012332819,-0.5462449085860137,,0.2176666259765625,0.113067626953125,-2.0886993408203125
420,29.399,-0.022287839317598146,0.36264255487634556,-0.8478740066312804,-0.997329813779236,-0.5979561742785356,,0.5756683349609375,0.304107666015625,-1.6472625732421875
421,29.448,0.757392854664929,0.810943519315025,-1.2465045753037152,-0.9368988786060451,-0.696556119944446,,1.453948974609375,0.5601043701171875,-1.918731689453125
422,29.62,0.25680419077450356,0.1167984640149222,-4.832549134920022,-0.985584263064333,-0.5365612877411214,,0.793365478515625,-0.025970458984375,-5.66424560546875
423,29.787,-3.0657946088046906,-1.3813239029226276,1.4176738080999083,-0.9968505297075868,-0.3610979535312532,,-2.7046966552734375,-1.4552764892578125,0.4880828857421875
424,29.867,0.6065303733720173,-0.09815661764051098,-1.1895786558348411,-0.999363210826133,-0.3818729469404827,UpperCut,0.9884033203125,-0.131134033203125,-2.1132049560546875
425,29.917,0.2831408692512373,-0.5381888476723931,0.12270426982152627,-0.9999999500996114,-0.3674023436393877,,0.650543212890625,-0.538482666015625,-0.8073577880859375
426,29.967,0.3371121009580817,-0.36808761831793607,-0.3632312393686976,-0.9998298106718376,-0.3577884117372308,,0.6949005126953125,-0.38531494140625,-1.296875
427,30.017,0.21016538019002012,-0.29716239098592434,-0.6907503493593354,-0.9990857499513616,-0.3634277594584174,,0.5735931396484375,-0.3369903564453125,-1.62152099609375
428,30.066,0.140071395183887,-0.27716907646311345,-0.5196407940634103,-0.9942858689065824,-0.401463028644238,,0.541534423828125,-0.37493896484375,-1.4302825927734375
429,30.116,0.4636174500046554,-0.008943685590499406,-0.8070274853460229,-0.9871378283596014,-0.4286707580031571,,0.8922882080078125,-0.15338134765625,-1.6988677978515625
430,30.166,0.4922364586867427,-0.1469148508773503,0.08539075588915146,-0.9789966220395404,-0.4949614172898197,,0.9871978759765624,-0.324066162109375,-0.7652740478515625
431,30.216,0.6791607904452444,0.13179427834143814,0.14852858425443816,-0.959061462745284,-0.5504992437344431,,1.2296600341796875,-0.1046295166015625,-0.652130126953125
432,30.266,0.7676328822768315,0.1483123546784756,0.10753152700093649,-0.9330942210615008,-0.5967775181137935,,1.364410400390625,-0.1402587890625,-0.6411895751953125
433,30.565,-3.5840926314785984,-0.16499976964135027,0.9087683416984607,-0.918328703806228,-0.5981307174160985,,-2.9859619140625,-0.482208251953125,0.172821044921875
434,30.615,-0.04889367102091269,0.5672610892744905,-1.2745411453072604,-0.8544400907296148,-0.6630294132084127,,0.6141357421875,0.1783294677734375,-1.9141693115234375
435,30.665,0.574932712008693,0.38661291660759267,-1.275826256333234,-0.8467509629719561,-0.7041352811553695,UpperCut,1.2790679931640625,0.0088653564453125,-1.8770751953125
436,30.714,0.36674224257522026,0.27581248608161835,-0.34905003736876217,-0.885113937375249,-0.6789883482450922,,1.0457305908203125,-0.0658416748046875,-0.9988555908203124
437,30.764,-0.24582450170629322,-0.07144282489748133,-0.28361767634364976,-0.8822326264068635,-0.6747032858859807,,0.4288787841796875,-0.4189453125,-0.934783935546875
438,30.814,-0.7856728490375569,-0.043406050599162804,-1.3434498915078956,-0.8628907854026813,-0.6623818334125569,,-0.123291015625,-0.422027587890625,-1.989898681640625
439,30.894,-0.4336187245437386,0.017139806303658578,-1.4233221084443008,-0.83590792880699,-0.7240087391921761,,0.2903900146484375,-0.3614654541015625,-1.9999237060546875
440,30.944,-0.11620341740662044,0.18701872017369114,-0.5955995121870107,-0.7824158992484577,-0.7596818109613079,,0.6434783935546875,-0.21795654296875,-1.104400634765625
441,30.994,0.11951666108182313,0.3349366162183141,-0.3732086350415317,-0.773671055991957,-0.8233696914572393,,0.9428863525390624,-0.024627685546875,-0.8122711181640625
442,31.043,0.20515701887987847,0.3416815218236671,-0.21839014243401678,-0.7759010854669218,-0.8537724244794965,,1.058929443359375,0.0132293701171875,-0.6223602294921875
443,31.093,0.2118196333441581,0.4622663037017021,-0.9497491818345812,-0.7544514014338197,-0.8652372514214669,,1.077056884765625,0.1331939697265625,-1.3280029296875
444,31.392,-3.4327271805246227,-0.08344740671769701,1.490885288741291,-0.7898391295226665,-0.7352326736886853,,-2.6974945068359375,-0.4991607666015625,0.9555206298828124
445,31.442,-0.628672695756251,0.32244893840818883,-0.8641469280571725,-0.7088262599850356,-0.753886318803126,,0.125213623046875,-0.1409912109375,-1.3298492431640625
446,31.492,-0.009348462897602938,0.332853347865431,-1.4779695068430991,-0.6772353584582691,-0.7709451425851029,UpperCut,0.7615966796875,-0.1357574462890625,-1.9093017578125
447,31.542,-0.22352357138948276,0.0006469338173476502,-0.5616124957841888,-0.704585425659521,-0.7924017452176078,,0.568878173828125,-0.432220458984375,-0.9914093017578124
448,31.592,-0.05083693974059833,-0.008959126043281584,-1.4929914432125702,-0.7125663054945435,-0.8148139905218483,,0.76397705078125,-0.4156951904296875,-1.9060821533203125
449,31.641,-0.35653373746960537,-0.15482376822699934,-1.206990804792067,-0.6903838058650802,-0.8422972872742929,,0.4857635498046875,-0.544769287109375,-1.5791168212890625
450,31.691,-0.5943528132891288,-0.21298823129915484,-1.18752276025217,-0.6986303281116306,-0.8727799373125663,,0.2784271240234375,-0.562225341796875,-1.528533935546875
451,31.741,-0.18651097920011916,0.19998181338746718,-1.4100977682508513,-0.5643036094915734,-0.9207028737313692,,0.73419189453125,-0.1222076416015625,-1.6303253173828125
452,31.791,-0.3202498727430042,0.23064726199090235,-1.0971668068765814,-0.5193948590010473,-0.9479659371961292,,0.627716064453125,-0.041412353515625,-1.2625274658203125
453,31.841,-0.5611578429907069,0.01869938747950381,-0.4079791875435306,-0.6048374326342998,-0.9598242248266444,,0.3986663818359375,-0.2047576904296875,-0.57769775390625
454,31.891,-0.6275073920714351,0.008226172732729992,-0.6229136638537077,-0.6337333130073245,-0.9633380805479976,,0.3358306884765625,-0.199310302734375,-0.792938232421875
455,31.941,-0.5144855948294158,0.08018134023894158,-0.8674872024051888,-0.5892611644840587,-0.9732868643606658,,0.45880126953125,-0.105316162109375,-1.002777099609375
456,31.99,-0.09322357399009074,0.41145012285498406,-1.3332442094856147,-0.4674005052248636,-0.9813613913729032,,0.8881378173828125,0.2415618896484375,-1.423065185546875
457,32.04,0.13549802813885836,0.3980216347628338,-1.1839262009398057,-0.4035416644550047,-0.9761352726423916,,1.11163330078125,0.1993255615234375,-1.2715606689453125
458,32.09,0.3284662194436203,0.16172222938414743,-1.4770271387850338,-0.3644515407985019,-0.9437963537985672,,1.2722625732421875,-0.1460723876953125,-1.5974884033203125
459,32.379,-3.320301715596743,0.06049085976302482,0.3623548896813046,-0.386392386742129,-0.9187514226279928,,-2.40155029296875,-0.303680419921875,0.2097930908203125
460,32.469,-0.11848631580487956,-0.057941604082312026,-1.9443549103701894,-0.354442125522388,-0.9241198607267546,UpperCut,0.805633544921875,-0.4152374267578125,-2.0797882080078125
461,32.519,-0.2468860725409584,-0.31162004443300934,-0.8814912810722756,-0.3769383289552704,-0.9291370491034584,,0.6822509765625,-0.654083251953125,-1.0208587646484375
462,32.569,-0.3136521117704414,-0.3767422660259309,-1.4051687448887755,-0.3327902140456949,-0.9448166625516914,,0.63116455078125,-0.6856689453125,-1.514190673828125
463,32.638,-0.29301466334697757,-0.15499166853787144,-1.9040734355228683,-0.309726362185618,-0.9695283352219776,,0.676513671875,-0.3879241943359375,-1.979949951171875
464,32.688,-0.5265412898143162,-0.36670786581192216,-1.0515655114917775,-0.3221559369445635,-0.9754701228221287,,0.4489288330078125,-0.575103759765625,-1.1224822998046875
465,32.738,-0.4982042534461003,-0.08274417086170474,-1.4377178645087505,-0.2621946137544432,-0.9909563286414128,,0.4927520751953125,-0.2122344970703125,-1.472900390625
466,32.788,-0.4747681281623477,-0.12931905514564257,-1.379064166819168,-0.1960828935659915,-0.9981293342170352,,0.5233612060546875,-0.18927001953125,-1.39105224609375
467,32.838,-0.9656356150805399,-0.2817481265921669,-1.800136898958095,-0.2397874631309584,-0.9999831492602274,,0.0343475341796875,-0.287384033203125,-1.8015289306640625
468,32.888,-0.4302404084115786,-0.15563184946842118,-0.362109955521735,-0.2904593409431481,-0.9984166779428286,,0.56817626953125,-0.2094573974609375,-0.378448486328125
469,32.937,-0.3664665123547659,-0.12173505780183311,0.22732949466919225,-0.2925599406443425,-0.9981956383313284,,0.6317291259765625,-0.1791534423828125,0.2097625732421875
470,32.987,-0.17064835246443155,-0.06067505979815309,-0.4106129477386566,-0.2339683048130886,-0.9949891727769316,,0.8243408203125,-0.1578826904296875,-0.4340057373046875
471,33.037,0.10035989730838368,-0.5672934999443475,-0.8865104801472559,-0.155186252179405,-0.9975557521056788,,1.0979156494140625,-0.636322021484375,-0.8973541259765625
472,33.406,-3.162896401656689,-0.003255925252548794,0.29778142559800175,-0.0280395270894502,-0.9948971340785644,,-2.167999267578125,-0.1041107177734375,0.294952392578125
473,33.506,-0.015619371480974809,-0.22350764202176465,-1.97210636428382,-0.0116074558277917,-0.9919987660122248,UpperCut,0.97637939453125,-0.3497467041015625,-1.97357177734375
474,33.555,-0.09878885991891384,-0.4645647621954884,-1.1103269674213847,0.0025080331555197,-0.9827610278876638,,0.88397216796875,-0.649444580078125,-1.10986328125
475,33.605,-0.15512254867285746,-0.13245992173837123,-1.6460882552232785,0.0842454733364738,-0.957414418790045,,0.8022918701171875,-0.4201507568359375,-1.62176513671875
476,33.655,-0.0365373031869215,-0.07718750263662083,-1.9500294711783326,0.1013557737334498,-0.931205882288484,,0.8946685791015625,-0.4398040771484375,-1.9130859375
477,33.705,-0.3911799291032123,0.011123188624895919,-1.4734878637973863,0.1396721723546252,-0.8966578343766497,,0.5054779052734375,-0.4272613525390625,-1.411651611328125
478,33.755,-0.24214744981461145,0.4811308616441343,-2.0560011323144516,0.2216595325154001,-0.857030872666174,,0.6148834228515625,-0.0213165283203125,-1.9417877197265625
479,33.805,-0.370349359181362,0.44586843994654424,-1.289417120140188,0.1998677199995396,-0.8313631531266745,,0.4610137939453125,-0.0986480712890625,-1.1783447265625
480,33.854,-0.5664993559718254,0.5239567391271034,-0.9370512354801908,0.1654879732764323,-0.8126236235499504,,0.246124267578125,-0.0507965087890625,-0.840606689453125
481,33.904,-0.6570676694550087,0.48091285841300135,-0.732945500731233,0.1481497976327321,-0.7979978452362587,,0.14093017578125,-0.1150970458984375,-0.6436614990234375
482,33.954,-0.5556527346971997,0.6116734934641715,-0.8269292118779588,0.1827457702892613,-0.7833291262987622,,0.2276763916015625,0.0005340576171875,-0.7133331298828125
483,34.004,-0.41167981317871316,0.5874064320930023,-0.8913982390542088,0.2378494178195851,-0.7918983190380882,,0.380218505859375,-0.0057220458984375,-0.74615478515625
484,34.054,0.8116363403921012,0.39601663994429603,-1.3991112206816068,0.2909769649347987,-0.8110138060922738,,1.622650146484375,-0.1636962890625,-1.2288818359375
485,34.383,-3.021700921739149,0.0882995141027706,0.45958662562527147,0.2383796808414894,-0.8693876893172738,,-2.152313232421875,-0.3915863037109375,0.5773773193359375
486,34.453,-0.17171837118437805,0.5639993404138057,-2.1769660656873504,0.2522535239900666,-0.8480031612234405,,0.6762847900390625,0.0511474609375,-2.04327392578125
487,34.502,0.007323181806269341,-0.008043951576462427,-1.7673321360063068,0.2833720630775109,-0.8418894646781057,UpperCut,0.849212646484375,-0.52557373046875,-1.614410400390625
488,34.552,0.02719734774563798,-0.1673913266670548,-1.4890978379910593,0.2981981786699684,-0.809106363191862,,0.8363037109375,-0.7283172607421875,-1.3138580322265625
489,34.602,0.11150806846389638,0.24608169593579132,-1.999166243679179,0.3388912825753195,-0.7422822147392286,,0.853790283203125,-0.3843536376953125,-1.7720794677734375
490,34.652,0.23348079189137527,0.39182458521657004,-1.9846980045347662,0.3910447239866039,-0.6723572208039371,,0.9058380126953124,-0.289459228515625,-1.6952362060546875
491,34.702,0.14514991859360926,0.5015615945529395,-1.7255444685624042,0.3614128093639197,-0.6223671712501407,,0.76751708984375,-0.2282562255859375,-1.442657470703125
492,34.752,-0.0035044795088413627,0.5520941531722958,-1.3330391247544993,0.3013971355044928,-0.5866648798994664,,0.583160400390625,-0.2200775146484375,-1.088958740234375
493,34.801,-0.31160285000042864,0.521997825800364,-1.4463942509963794,0.2695106609172903,-0.5555756283207411,,0.2439727783203125,-0.2787017822265625,-1.2223052978515625
494,34.851,-0.37358986740189737,0.6537925332518453,-1.26352194156383,0.2551225971595536,-0.5203183830268974,,0.146728515625,-0.1719207763671875,-1.045654296875
495,34.901,-0.3622180491775707,0.6850454448017809,-1.035578179533686,0.2544345222482709,-0.4878589183181958,,0.125640869140625,-0.159149169921875,-0.8134765625
496,34.951,-0.3629661963237056,0.7313326994440037,-0.8740402719254503,0.2793511503876893,-0.4657036230815181,,0.1027374267578125,-0.118377685546875,-0.6268310546875
497,35.001,-0.3128350291300838,0.7780468144053604,-1.0008447936815439,0.3324778503029579,-0.4484551463175838,,0.1356201171875,-0.064910888671875,-0.70367431640625
498,35.051,-0.24521761481265109,0.5931494027102712,-1.0290857322800873,0.3567158599354664,-0.4567959839532761,,0.211578369140625,-0.2378997802734375,-0.711761474609375
499,35.101,0.5124510644701865,0.6661490548145932,-1.4545077968533706,0.4940719532423246,-0.4683533788891885,,0.980804443359375,-0.102020263671875,-1.017974853515625
500,35.15,1.3132548600735146,0.9838343681519274,-2.2048756015458477,0.5148216531551973,-0.521568748324923,,1.8348236083984375,0.25238037109375,-1.765625
501,35.2,1.0982823417380245,0.5214007118316616,-2.1555616826093402,0.4580696340580584,-0.6738123848244755,,1.7720947265625,-0.1354217529296875,-1.8170928955078125
502,35.479,-3.014184985448143,0.43982067479487374,0.6462203070456802,0.4899359593706734,-0.7016392090809551,,-2.3125457763671875,-0.18133544921875,0.9953155517578124
503,35.529,-0.39706103521554414,0.2742854907888921,-1.8544917698059629,0.612049378631558,-0.6966063233014816,,0.2995452880859375,-0.2930908203125,-1.415374755859375
504,35.599,0.22186159380869797,0.42331942079358054,-2.5485554361671645,0.6309232792273569,-0.643922097597552,UpperCut,0.86578369140625,-0.1702728271484375,-2.0658416748046875
505,35.649,0.4179453024438943,-0.013971317589950072,-1.840284512435921,0.6594584580223236,-0.6138082375951682,,1.0317535400390625,-0.6074371337890625,-1.319671630859375
506,35.709,0.41219426566650674,0.5351181051203273,-2.7228211105793045,0.66590939494677,-0.5499181610913056,,0.9621124267578124,-0.087982177734375,-2.1666412353515625
507,35.758,0.005556804454318054,0.048765688394740825,-1.8194638307054238,0.6030223377176874,-0.5482304269909944,,0.5537872314453125,-0.6183929443359375,-1.3151397705078125
508,35.808,0.027503629420939202,0.3447587899335516,-1.806646068528951,0.6114530356403469,-0.5125049155009358,,0.540008544921875,-0.3347015380859375,-1.2816009521484375
509,35.858,-0.010066259807840372,0.49586116449192963,-1.9734463909827968,0.5975610885425072,-0.4692795166437778,,0.4592132568359375,-0.212188720703125,-1.445770263671875
510,35.908,-0.10005821962979727,0.4135504207249667,-1.828156381534451,0.585711563634371,-0.4241091229501098,,0.3240509033203125,-0.320465087890625,-1.2977294921875
511,35.958,0.2132867076708188,0.6666742516653903,-1.8263822998178816,0.5795757372381595,-0.3588110706494937,,0.5720977783203125,-0.0939788818359375,-1.285400390625
512,36.008,0.19036772654674922,0.5062096431327385,-1.4414142066786846,0.5037790047603761,-0.3337564189610633,,0.5241241455078125,-0.3080902099609375,-0.966522216796875
513,36.058,-0.1366660668158136,0.166888132024398,0.24881884722545777,-0.8304928212927931,-0.4150168968939386,,0.278350830078125,-0.33990478515625,-0.50677490234375
514,36.107,-0.07260934391805629,0.43947043804812314,0.2823999436062492,-0.5405994184302062,-0.1376728204805563,,0.0650634765625,-0.393798828125,-0.2530517578125
515,36.157,-0.0649346918795791,0.386042065739826,0.5007156670960169,-0.7919538004463526,-0.1021661371920791,,0.0372314453125,-0.221343994140625,-0.2870941162109375
516,36.207,0.07769293619833179,0.3281478521841067,0.23240962089419226,-0.8416658222411608,-0.1092577473954182,,0.18695068359375,-0.2086181640625,-0.604217529296875
517,36.257,0.6627943719400375,0.19844673213154362,-0.2109362856575433,-0.9099205137232464,-0.1009232794271499,,0.7637176513671875,-0.2142181396484375,-1.1162109375
518,36.307,1.8070308557390624,-0.11806319881778002,-0.5796593116498294,-0.968745774855338,-0.0683048376203127,,1.875335693359375,-0.36553955078125,-1.546142578125
519,36.634,-2.289440616271992,0.36791410508255906,2.0509181490456365,-0.9910319074135182,-0.0558285557251172,,-2.233612060546875,0.2344970703125,1.061431884765625
520,36.684,0.1649871775130104,0.059462606967056825,-0.7889946443894653,-0.9754971891020012,0.0496154734114479,,0.1153717041015625,-0.1602783203125,-1.7632904052734375
521,36.765,0.7255884543139425,-0.8495802031367607,-0.981493534024563,-0.9594139372620866,0.0840174093920675,UpperCut,0.641571044921875,-1.130584716796875,-1.9375152587890625
522,36.815,0.8379932204835483,-1.3261197387844819,-0.021561457534028827,-0.8904955922141942,0.1383930007569858,,0.6996002197265625,-1.7767333984375,-0.9034881591796876
523,36.865,0.8561508554962787,-1.1726022570543753,-0.34060397861317226,-0.821781500361996,0.1585342783478412,,0.6976165771484375,-1.735198974609375,-1.1519927978515625
524,36.915,0.8502413778260681,-0.866743404834232,0.16372970928740216,-0.7240717497364476,0.1802889852479431,,0.669952392578125,-1.545166015625,-0.5484771728515625
525,36.965,0.8642452424497871,-0.32390062149393384,0.1788805342636074,-0.5750847072591033,0.1664303010435371,,0.69781494140625,-1.130584716796875,-0.38818359375
526,37.014,0.7593148942923098,-0.09520787759429228,0.2325211642310952,-0.4187679153456474,0.1587136980032473,,0.6006011962890625,-0.991790771484375,-0.180938720703125
527,37.064,-0.06922850574525186,0.07171869064903424,-0.013589343525645448,0.1861686517619476,-0.6881402489093144,,0.6189117431640625,-0.64117431640625,0.121490478515625
528,37.114,-0.1304817081522857,0.3010407844013009,-0.09041221225514356,0.2876396787695732,-0.3833961368632232,,0.2529144287109375,-0.5835113525390625,0.1752471923828125
529,37.164,-0.2510200916191404,0.23692322806386523,-0.10046798685718683,0.3904019875390354,-0.6982551990410154,,0.447235107421875,-0.422119140625,0.1790008544921875
530,37.214,-0.13108088376911364,0.1154974121610326,0.006005826643396252,-0.0519295037707521,-0.7498552978316136,,0.6187744140625,-0.5452117919921875,-0.028350830078125
531,37.264,0.047425519529426086,-0.06875657595978601,-0.010577843614810983,-0.1520559042979246,-0.5632922539080739,,0.6107177734375,-0.885406494140625,-0.1362152099609375
532,37.314,0.026258265685159654,-0.12592987119821364,0.00593883378249796,-0.1773325233708403,-0.5728017929085903,,0.59906005859375,-0.9326324462890624,-0.1394195556640625
533,37.363,0.005121123554226892,-0.013551058855798104,-0.0028249959576058525,-0.204082942482326,-0.3469754340629606,,0.3520965576171875,-0.9316864013671876,-0.1942291259765625
534,37.413,0.016677509855738126,-0.016341945576030747,-0.0009833462069933005,-0.0600644989878263,-0.7136233934645744,,0.7303009033203125,-0.715606689453125,-0.043060302734375
535,37.463,0.006677782870742693,-0.042621185399569717,-0.010037384623216766,-0.2292312823549898,-0.1507624026761323,,0.157440185546875,-1.0048675537109375,-0.2366485595703125
536,37.513,0.07789099199282301,-0.16994226643937826,-0.03032070272284229,-0.250288515703032,-0.1410573722649895,,0.2189483642578125,-1.1284332275390625,-0.278106689453125
537,37.563,-0.07045390573013799,-0.33742299920604135,-0.10640274924109641,-0.2276018787731469,-0.1402018305348255,,0.0697479248046875,-1.3015594482421875,-0.331756591796875
538,37.613,0.1001525906586051,-0.12334016071998544,0.35086619706436245,-0.1232476050033297,-0.1722930880523324,,0.2724456787109375,-1.1008758544921875,0.229461669921875
539,37.662,0.012252041308091488,-0.025987347808338113,0.020574575637667958,0.6207262866091877,-0.346710971387221,,0.3589630126953125,-0.761383056640625,0.6027984619140625
540,37.712,0.0434364072260045,0.20236736548613476,0.17211363756782083,0.6577516332644829,-0.376165033203683,,0.4196014404296875,-0.49554443359375,0.78155517578125
541,37.762,-0.01636107710800569,0.06754658458414042,-0.03984623920431696,0.508089784636323,-0.2042272880455057,,0.1878662109375,-0.775604248046875,0.4575347900390625
542,37.812,0.007358627799869594,-0.07440838959407858,0.026518426413673524,0.3357076079884841,-0.0927542872391929,,0.1001129150390625,-1.0123138427734375,0.36077880859375
543,37.862,-0.0403913380079553,0.15832203044160864,-0.028479943655125073,0.1770444811764875,-0.2435315967970178,,0.2031402587890625,-0.7962493896484375,0.1432342529296875
544,37.912,0.1603773063941696,0.6716127327699541,0.30577707019975486,0.2164088045033964,-0.2154161506370804,,0.37579345703125,-0.281768798828125,0.5171051025390625
545,37.961,0.024522272247287202,0.9373697141966872,0.1118079736041796,0.1546724880443513,-0.1449570978699003,,0.1694793701171875,-0.0401611328125,0.2648468017578125
546,38.011,-0.2220185617793306,0.8841916899574094,0.11638979734919468,-0.0557249235367722,-0.0120881418574556,,-0.209930419921875,-0.1141815185546875,0.0606689453125
547,38.061,0.0320473732633411,0.8199963570662374,-0.030054103999222648,-0.3196163837350801,0.1018868508024036,,-0.0698394775390625,-0.12261962890625,-0.3480072021484375
548,38.111,0.2480505455045322,0.5863496413229979,0.10803191077098351,-0.6244173059504928,0.2025030601529697,,0.0455474853515625,-0.178558349609375,-0.503448486328125
549,38.161,0.9491032872113909,0.3876163221901806,-0.6227406228833552,-0.876184341638405,0.2148961338910784,,0.7342071533203125,-0.083099365234375,-1.47845458984375
550,38.53,-2.327645516216186,0.5460652469608234,2.3757724767155413,-0.8971374372985035,0.2839572669869388,,-2.611602783203125,0.12249755859375,1.51556396484375
551,38.58,-0.012705975989847601,0.03944059193642502,0.06490473758565096,-0.8545880161262489,-0.1650039496226601,UpperCut,0.1522979736328125,-0.472747802734375,-0.7779693603515625
552,38.629,0.1899417192827222,-0.4512024178022908,-0.335997021749069,-0.8662516516610818,-0.1401821820844653,,0.3301239013671875,-0.9458770751953124,-1.193695068359375
553,38.679,0.4450901482736362,-0.29539238133543977,0.1401963032093998,-0.854803758831502,-0.1124812628591763,,0.5575714111328125,-0.8110504150390625,-0.7091827392578125
554,38.729,0.7136676474486682,-0.34138298271910716,-0.4029406159671495,-0.830941838298331,-0.0607921914185193,,0.7744598388671875,-0.8967132568359375,-1.2323455810546875
555,38.779,0.6617123167260822,-0.8483717872141139,0.12152508297550602,-0.806479871857327,-0.0140231569067303,,0.6757354736328125,-1.4395751953125,-0.68487548828125
556,38.829,0.4721489667537094,-0.5106765852798422,-0.6944549665823541,-0.8066528885638686,-0.0419806719181656,,0.514129638671875,-1.1011810302734375,-1.500396728515625
557,38.879,0.6541011639961571,-0.22232811358116844,-0.40990433679755756,-0.6499936983782,-0.0107853106132179,,0.664886474609375,-0.9822235107421876,-1.0598602294921875
558,38.928,0.382067269709257,-0.351506334354003,-0.2795108332449737,-0.4609681481223643,0.001421517756132,,0.380645751953125,-1.238922119140625,-0.740478515625
559,38.978,0.3343547162208386,-0.33795852494935563,-0.591283253222042,-0.2522211224936209,0.0267222699317761,,0.3076324462890625,-1.3052825927734375,-0.843414306640625
560,39.028,0.1951040853232527,-0.44620403077950843,0.14258945812817747,-0.1096612954398495,0.0023550618857527,,0.1927490234375,-1.4401702880859375,0.032928466796875
561,39.078,0.20079087618118602,-0.06764957459827614,-0.1673472242402682,-0.0195204144293792,-0.0632014333891265,,0.2639923095703125,-1.065460205078125,-0.18682861328125
562,39.128,-0.05659871177314851,0.1528379201662433,-0.0035961164275103673,0.0235224439764563,-0.3471870906793985,,0.29058837890625,-0.784698486328125,0.018463134765625
563,39.178,-0.1044875184322886,0.2805694608507532,-0.06592785316280897,0.2287483964452276,-0.3408309022213511,,0.2363433837890625,-0.6346282958984375,0.1491241455078125
564,39.227,-0.3428846562312652,0.2267862697489107,-0.1557434896919181,0.5661040380747466,-0.7799726689265777,,0.4370880126953125,-0.289093017578125,0.1985321044921875
565,39.277,-0.19735618735346427,0.36111999897289493,-0.11132608121102727,0.5583573588422333,-0.8365468611815893,,0.639190673828125,-0.093414306640625,0.1945953369140625
566,39.327,0.05009054897795506,0.18499153266185198,-0.07356852135956654,0.5288154709227698,-0.8608133816861073,,0.9109039306640624,-0.2469482421875,0.195556640625
567,39.377,-0.006277342835917188,0.006950789599778906,-0.0022396296321862685,0.3066851779905123,-0.6518614492812297,,0.6455841064453125,-0.71484375,0.2303314208984375
568,39.427,-0.4026534019964563,-0.33269410200518745,0.025270332709587034,0.3107352174848838,-0.6381422935980188,,0.2354888916015625,-1.0644989013671875,0.2645111083984375
569,39.477,-0.5695944973467073,-0.41206002572207123,0.26177001310588355,0.322547459128203,-0.6471244045732698,,0.0775299072265625,-1.133697509765625,0.5076751708984375
570,39.527,-0.5355753095742826,-0.35589925064716554,0.43793078990077217,0.3283076466444923,-0.6622385175820951,,0.1266632080078125,-1.06365966796875,0.683929443359375
571,39.576,-0.5390634827427143,-0.28347957617417585,0.6205793148460845,0.347841120169116,-0.6818247132114643,,0.14276123046875,-0.9693145751953124,0.875030517578125
572,39.626,-0.6235511840675974,-0.24515631974677243,0.7518147676901256,0.369546205529454,-0.6895912231300974,,0.0660400390625,-0.9180908203125,1.019439697265625
573,39.676,-0.7015714199840092,-0.03668097631982159,0.7358949561919321,0.3816587168564858,-0.6972989590465092,,-0.0042724609375,-0.6992034912109375,1.00946044921875
574,39.726,0.0033916373277994016,0.09056496526949442,-0.1029839863574813,0.7509338616569741,0.0247234244371744,,-0.021331787109375,-0.569610595703125,0.6477203369140625
575,39.776,-0.0241821703986439,0.22111852191522585,-0.22724410258990402,0.7167004695312501,-0.0760467944220814,,0.0518646240234375,-0.4742431640625,0.4873809814453125
576,39.826,-0.0664876082451713,0.5150934055788776,-0.009385127534482868,0.0182172204031464,-0.1279957869561088,,0.0615081787109375,-0.4765167236328125,0.0086822509765625
577,39.875,-0.35137671957547845,0.47836612441159065,-0.0009581583449640293,0.0020029771633908,-0.591992564302041,,0.2406158447265625,-0.32757568359375,0.0006561279296875
578,39.925,-0.030615980746412502,0.27146520897283855,0.3037463618218095,-0.7456167171297713,-0.074942762972975,,0.0443267822265625,-0.393035888671875,-0.4397735595703125
579,39.975,0.2711080587996035,0.3142295872489896,0.5082742064204276,-0.8898553664191594,0.029454616416791,,0.2416534423828125,-0.141815185546875,-0.381195068359375
580,40.025,0.1478614459566494,-0.14322691291672635,0.5119505206321001,-0.993855815232778,0.0984077106050869,,0.0494537353515625,-0.2533721923828125,-0.477081298828125
581,40.075,1.0889787759973553,-0.04153850857013491,0.07583974163113916,-0.9598432306550138,0.1277055826379802,,0.961273193359375,-0.3197784423828125,-0.8761444091796875
582,40.444,-2.128029368824787,0.42576767082034334,2.837417800334735,-0.9589006688740594,0.2339854016830255,,-2.3620147705078125,0.14990234375,1.9051361083984375
583,40.493,0.4869199519380067,-0.33598817295242234,0.0031635842149415616,-0.902204991869891,0.3167539363130067,,0.170166015625,-0.745086669921875,-0.8525848388671875
584,40.543,1.0043053016232462,-0.978277976360109,-0.6198789849203206,-0.9148403663233484,0.3731865272091836,UpperCut,0.6311187744140625,-1.3529205322265625,-1.4686279296875
585,40.593,1.1114103873215861,-1.2203564238442342,0.3743263307371161,-0.9438432675412444,0.4228422720872111,,0.688568115234375,-1.5197601318359375,-0.480987548828125
586,40.643,1.3817019839129232,-1.028699183052221,0.2879074120696137,-0.9567637726747634,0.4394259829363607,,0.9422760009765624,-1.28997802734375,-0.571533203125
587,40.693,1.1981730120090672,-0.6737639762862978,0.1446173558077175,-0.9523172228180172,0.4355692522434423,,0.762603759765625,-0.9484100341796876,-0.712615966796875
588,40.743,1.1822979901435078,-0.5474079716395039,0.20263960732418407,-0.9631071947535912,0.4434369061591329,,0.738861083984375,-0.7886199951171875,-0.6605987548828125
589,40.793,1.1099869035094776,-0.7960506519274118,-0.4638534846720258,-0.9940053121406608,0.4521194718688526,,0.657867431640625,-0.8935699462890625,-1.3504638671875
590,40.842,1.0041873710802784,-1.0271272904916806,0.187444407851585,-0.9909220622939532,0.4751956718615285,,0.52899169921875,-1.145416259765625,-0.6844482421875
591,40.892,0.9297014280765126,-0.8804245601065952,0.21281879308389107,-0.9481187264622964,0.4675432249515126,,0.462158203125,-1.1614532470703125,-0.6252899169921875
592,40.942,0.8099634575680441,-0.6581507285154615,0.24930714978432378,-0.8721528977189942,0.4360010552242941,,0.37396240234375,-1.0984344482421875,-0.53558349609375
593,40.992,0.011072581389242275,-0.012572719651645525,-0.0016297174724745345,-0.1285478600123976,-0.6578116959545077,,0.66888427734375,-0.7595062255859375,-0.09844970703125
594,41.042,-0.06865931650529988,0.043460888110866236,0.006782889681787502,-0.1542021346815115,-0.8420205225599874,,0.7733612060546875,-0.489532470703125,-0.0764007568359375
595,41.092,-0.19054649434552384,0.18858233295109528,-0.047716560387317364,0.2452972115679334,-0.6997628029392738,,0.50921630859375,-0.50396728515625,0.1275177001953125
596,41.141,-0.2579588833138724,0.17491854377848004,-0.09897370468374567,0.4924595710197793,-0.7888426723763724,,0.5308837890625,-0.3599853515625,0.2036895751953125
597,41.191,-0.16962904443645965,0.20894172162680136,-0.08856059748832362,0.3902460494246524,-0.5987061928739597,,0.4290771484375,-0.5285186767578125,0.2240142822265625
598,41.241,-0.0919118048212405,0.16053362562434015,-0.05181921666102057,0.3071862766979795,-0.4784474493524905,,0.38653564453125,-0.6751251220703125,0.217926025390625
599,41.291,0.0121895621532839,-0.0747741420386353,0.029945748494059177,0.3717769189843367,-0.1496298958545286,,0.1618194580078125,-0.992645263671875,0.3975372314453125
600,41.341,0.009153829063917707,-0.17711438208165808,0.26411043795078565,0.3636682520355475,-0.1415877480845198,,0.1507415771484375,-1.0992584228515625,0.624114990234375
601,41.391,-0.0823571845851612,-0.2467541145566391,0.7291539287159825,0.3960164436484103,-0.1343133613429737,,0.0519561767578125,-1.15667724609375,1.12158203125
602,41.44,-0.1256613049397202,-0.13791166085948547,0.7775555386289924,0.4150719890679448,-0.1408132824787827,,0.0151519775390625,-1.03863525390625,1.1884918212890625
603,41.49,-0.0929272958109851,-0.021969168858343546,0.5036973214746752,0.4335674224602917,-0.1566022225687976,,0.0636749267578125,-0.9119720458984376,0.931915283203125
604,41.54,-0.2078307346031127,0.020950943942621314,0.28513171915439633,0.4885942710716864,-0.1414397433921752,,-0.0663909912109375,-0.8427886962890625,0.7688140869140625
605,41.59,0.0066389424450621,0.1477084668201296,-0.0905956360077872,0.5228332070974309,0.0382856709606871,,-0.031646728515625,-0.7041015625,0.431854248046875
606,41.64,-0.0194918690090106,0.3164435867935286,-0.10705180026602346,0.3204560182071025,-0.0582491932277606,,0.03875732421875,-0.62921142578125,0.212860107421875
607,41.69,-0.0407585499619864,0.4101417095032097,-0.04973777874712815,0.1203877394674151,-0.0981773732041739,,0.0574188232421875,-0.577789306640625,0.070068359375
608,41.74,-0.2893491436692208,0.41493536572552225,-0.04561044633496922,0.1092636859236912,-0.5696836163254708,,0.28033447265625,-0.402008056640625,0.044189453125
609,41.789,-0.3593414483057056,0.4558812628633878,0.07228120221171067,-0.1565965738054903,-0.6143005547510181,,0.2549591064453125,-0.323455810546875,-0.0512847900390625
610,41.839,-0.03246781904649093,0.6570698109864219,-0.02820604052731951,-0.3348883990540806,-0.496701217483991,,0.4642333984375,-0.160736083984375,-0.3188629150390625
611,41.889,-0.05721045871682828,0.5998233568102871,0.06154162368289895,-0.5486120506085864,-0.3770499362558908,,0.3198394775390625,-0.1745452880859375,-0.4465789794921875
612,41.939,0.009890636480446191,0.36681567414433225,0.09736353531984654,-0.8050411085073373,-0.3048524055117413,,0.3147430419921875,-0.1981658935546875,-0.6693572998046875
613,41.989,0.7436839102126767,0.0274212813818486,-0.3748934854969286,-0.985119301223236,-0.2772969247482609,,1.0209808349609375,-0.1377105712890625,-1.321380615234375
614,42.358,-2.199512692828696,0.10232502548402703,1.7879885711105905,-0.9988808026250297,-0.2281839574771336,,-1.9713287353515625,0.0562744140625,0.815460205078125
615,42.407,-0.42426056732929873,-0.825655567049667,-0.2413869072830087,-0.99945583413078,-0.1572470175246112,UpperCut,-0.2670135498046875,-0.8582305908203125,-1.2284088134765625
616,42.457,0.7381820619739894,-0.4302235665891684,-0.7181887113318496,-0.9891781424182856,-0.2051620542369482,,0.9433441162109376,-0.573822021484375,-1.6863250732421875
617,42.507,0.8837482145306191,-0.7255812188627087,-0.6934259696388282,-0.9815656319796674,-0.2473705598834434,,1.1311187744140625,-0.9107666015625,-1.6444854736328125
618,42.557,0.7904236635633214,-1.0951798179149241,-0.2379678441123927,-0.9980080891065384,-0.2460601010851161,,1.0364837646484375,-1.1563262939453125,-1.205291748046875
619,42.607,0.8148962828757609,-1.0653714206950768,-0.1704106670052169,-0.9997722890544126,-0.2149193909523641,,1.029815673828125,-1.086212158203125,-1.146820068359375
620,42.657,0.8416919559401013,-0.7751526047522489,-0.46774814340842785,-0.997001227310678,-0.2052288204270862,,1.0469207763671875,-0.85089111328125,-1.4435272216796875
621,42.706,0.5215970813727676,-0.6745340184072866,-0.15945642386177195,-0.974498935488712,-0.1738832653069199,,0.6954803466796875,-0.8955078125,-1.119110107421875
622,42.756,0.20333161827679153,-0.37849773235288203,0.25956266603236633,-0.8845909127615547,-0.170798630746646,,0.3741302490234375,-0.8380126953125,-0.612030029296875
623,42.806,0.017642679098686387,-0.037136102227778744,-0.025585514293916756,-0.5673483358515906,-0.3643305875028761,,0.3819732666015625,-0.80401611328125,-0.5539398193359375
624,42.856,0.01493601302972769,-0.04382803528533663,-0.028453144147626785,-0.544516339298929,-0.2748283912671473,,0.289764404296875,-0.85028076171875,-0.552001953125
625,42.906,-0.07779958820380117,0.10864824240459658,0.026935072884822497,-0.2406266259224215,-0.5707195100788012,,0.492919921875,-0.6883697509765625,-0.170654296875
626,42.956,-0.06808007210386524,0.1530628466732059,0.015958003478363805,-0.1036958031903818,-0.4045668885101152,,0.33648681640625,-0.7565155029296875,-0.0788726806640625
627,43.006,-0.06489768160392739,0.21139105226207489,0.006996517140387272,-0.0330793950880577,-0.2933370126586149,,0.2284393310546875,-0.7440948486328125,-0.024627685546875
628,43.055,0.010491627803249304,0.14145933362118412,-0.048603851942297605,0.3249434789110947,0.0699703875688743,,-0.059478759765625,-0.8019561767578125,0.275543212890625
629,43.105,0.00011168038533529998,0.027453069267900254,-0.025787419028860947,0.6846496815699609,0.0029650739400228,,-0.0028533935546875,-0.701416015625,0.6588592529296875
630,43.155,0.0803456107831815,0.11767990554753782,0.318693309296497,0.7427414055929326,-0.064445038630881,,0.1447906494140625,-0.550506591796875,1.0598907470703125
631,43.205,0.0440858645701301,0.13535350204445784,0.37485305083086096,0.7363873061485184,-0.1187101559376824,,0.1627960205078125,-0.5364227294921875,1.1060333251953125
632,43.255,-0.05085155074922629,0.021903249319666807,0.3770394563714281,0.7216468471073693,-0.1398102909836013,,0.088958740234375,-0.6635589599609375,1.0915985107421875
633,43.305,-0.1611720958288731,-0.08748766643337935,0.2038260776780071,0.721077243021284,-0.1310359874304356,,-0.0301361083984375,-0.7743682861328125,0.9186859130859376
634,43.354,-0.00038538606608139875,0.005023808567637733,-0.004490260895844589,0.6664052495945743,-0.0571023050113939,,0.0567169189453125,-0.739349365234375,0.66082763671875
635,43.404,-0.011596728004547197,0.10841498928878124,-0.0896119918171926,0.6371002462808939,-0.0821686274186097,,0.0705718994140625,-0.659759521484375,0.5453338623046875
636,43.454,-0.0800255751275899,0.310313693651725,-0.14325535349521268,0.4191393371108727,-0.2279747938775899,,0.14794921875,-0.573699951171875,0.2648468017578125
637,43.504,-0.09780187245269281,0.40702401136657007,-0.09025931159515849,0.2164950790340369,-0.2283865892495678,,0.130584716796875,-0.54345703125,0.120513916015625
638,43.554,-0.09280212037216168,0.3216044206410186,0.02813237930443492,-0.0871423348279858,-0.2762738000596617,,0.1834716796875,-0.6358184814453125,-0.0556182861328125
639,43.604,-0.005878131154148397,0.12360909616503235,0.04384961314089175,-0.3343307553572647,-0.0447727844744609,,0.0388946533203125,-0.817901611328125,-0.2901458740234375
640,43.653,-0.032310068431521594,0.1598892301698953,0.0587726385941586,-0.3450130692443092,-0.1863475440174591,,0.1540374755859375,-0.76226806640625,-0.2801971435546875
641,43.703,-0.0240193106385706,0.300218306510205,0.018138106935686966,-0.0603064289328991,-0.0796070791932581,,0.0555877685546875,-0.694793701171875,-0.0419769287109375
642,43.753,-0.3501639161478668,0.4215372430546611,0.10867289233494565,-0.2496391363769183,-0.6267752442728668,,0.276611328125,-0.3329925537109375,-0.085845947265625
643,43.803,-0.23710968962801005,0.6177034320847736,0.22181731121204407,-0.5182647228947586,-0.57359650603426,,0.33648681640625,-0.0828399658203125,-0.2027130126953125
644,43.853,0.13470295022668088,0.41243728397731183,-0.5076971026833267,-0.8267337212907634,-0.5374467079764441,,0.672149658203125,-0.0619964599609375,-1.2048797607421875
645,44.26,-3.0745557864462,-0.392401775708299,2.8734738430591795,-0.928376198574072,-0.5484785159383873,,-2.5260772705078125,-0.703155517578125,2.097198486328125
646,44.361,-0.1112036683996439,-0.49706984739503257,-1.2481599145835507,-0.9110740312320194,-0.5401740053137064,UpperCut,0.4289703369140625,-0.843994140625,-2.0148773193359375
647,44.411,0.22193893441118084,-0.49098841795840703,-0.3191044593857948,-0.881967866901007,-0.5010072325810067,,0.7229461669921875,-0.8988800048828125,-1.0823974609375
648,44.461,0.23431618218135097,-0.6011386368421845,-0.12066498029581318,-0.9043462960056154,-0.4887215375452116,,0.7230377197265625,-0.9734954833984376,-0.9096527099609376
649,44.511,0.19322025231036788,-0.3378760202910076,-0.5392832477538253,-0.904006513910758,-0.5228594596036946,,0.7160797119140625,-0.702301025390625,-1.30987548828125
650,44.561,0.4994045332074465,-0.10698496590667878,-0.642806783244785,-0.870540128135535,-0.5175632402300535,,1.0169677734375,-0.528045654296875,-1.3876800537109375
651,44.61,0.23702080569512274,-0.301732679602404,-0.350635909039575,-0.7892452316730746,-0.5131470409845648,,0.7501678466796875,-0.82879638671875,-1.028045654296875
652,44.66,-0.056616092290596054,-0.20791370491133965,-0.29187363047260884,-0.7305108788636413,-0.5249846225640336,,0.4683685302734375,-0.7891387939453125,-0.9136199951171876
653,44.71,-0.2954717091358843,-0.1466616906756243,-0.3901400763466447,-0.6785858741913794,-0.5697484425343218,,0.2742767333984375,-0.75030517578125,-0.94781494140625
654,44.76,-0.12575094164335343,-0.04677353594995548,-0.25897564962175346,-0.6096991625687044,-0.6101106828542909,,0.4843597412109375,-0.6747894287109375,-0.7420501708984375
655,44.81,-0.16984714386110467,-0.12296519626445701,-0.7314965564372152,-0.4344893301964999,-0.6406570803845422,,0.4708099365234375,-0.8145294189453125,-1.0651092529296875
656,44.86,-0.3059704759377343,-0.16671180851631195,-0.8974562569431045,-0.1651349100948591,-0.6560986497658593,,0.350128173828125,-0.9110260009765624,-1.0220794677734375
657,44.91,-0.07930216636908433,0.23091646021409784,0.03699166609670232,-0.1581782528416884,-0.3211387142206468,,0.2418365478515625,-0.704193115234375,-0.1128082275390625
658,44.959,-0.10434241989663728,0.23934303417275282,-0.1995359267324074,0.6403423365381016,-0.3175229618888248,,0.2131805419921875,-0.4889984130859375,0.4076690673828125
659,45.009,-0.08268798300189811,0.2179329852978198,-0.20261862809304965,0.6809062305593292,-0.2677313179628356,,0.1850433349609375,-0.487701416015625,0.45343017578125
660,45.059,-0.020566562998294804,0.11153763246656123,-0.15243810503556887,0.8070364927999218,-0.1082435649514198,,0.087677001953125,-0.475494384765625,0.6498565673828125
661,45.109,0.007095350873564499,0.12599482075811652,-0.1585171175490776,0.78283760380669,0.0350189348579395,,-0.027923583984375,-0.495849609375,0.62384033203125
662,45.159,-0.014453520659490099,-0.04854386711783676,0.07594224882718137,0.8425693454842716,0.1583370066842599,,-0.17279052734375,-0.5803375244140625,0.9078826904296876
663,45.209,-0.1218038012898113,-0.07272027825511185,0.36220264556864656,0.827878584836993,0.1339792797648762,,-0.2557830810546875,-0.628570556640625,1.1826171875
664,45.258,-0.1725420280822786,-0.1269350866002642,0.5148892205553026,0.8054100601705257,0.1259198859802214,,-0.2984619140625,-0.714935302734375,1.3138885498046875
665,45.308,-0.2228389985511702,-0.28419377280329705,0.27855731919220716,0.79530631347368,0.1257480375816423,,-0.3485870361328125,-0.885589599609375,1.0675506591796875
666,45.358,-0.10579018467710141,-0.2676067236547104,0.012990080493865297,0.7776662804780242,0.1445760262603986,,-0.2503662109375,-0.889678955078125,0.7824859619140625
667,45.408,0.005748199617566799,0.06598716154717787,-0.03467414621304493,0.4651586853736698,0.0768846742269418,,-0.071136474609375,-0.816619873046875,0.429107666015625
668,45.458,-0.0003503682733025,0.2360988685618164,-0.06305148490122792,0.258013297941184,-0.00143374229674,,0.0010833740234375,-0.73004150390625,0.1949615478515625
669,45.508,-0.05803019555479061,0.276394337212828,-0.0058690994883055445,0.0212297284843939,-0.2054300978985406,,0.14739990234375,-0.702056884765625,0.0149078369140625
670,45.557,-0.11769615804268319,0.29519496399623224,0.05888451294842234,-0.1956226450928322,-0.3641561189801832,,0.2464599609375,-0.6181488037109375,-0.1233062744140625
671,45.607,-0.16578691377865518,0.3125348567081516,-0.002589767864519349,0.008286048427857,-0.4685975827239677,,0.3028106689453125,-0.5708465576171875,0.004730224609375
672,45.657,-0.25588680515195916,0.40193074135675455,0.026645879824489405,-0.0661495009806319,-0.5362060190191467,,0.2803192138671875,-0.4403076171875,-0.0291900634765625
673,45.707,-0.35025433508557935,0.4524807752056127,-0.08488856785059729,0.1843901425065231,-0.6054880997340168,,0.2552337646484375,-0.3297271728515625,0.061859130859375
674,45.757,-0.047359306918315705,0.3846592108719369,0.14763561111020135,-0.3583230488679921,-0.1141928030120657,,0.06683349609375,-0.5428314208984375,-0.208343505859375
675,45.807,-0.20094346218277226,0.21680046489776528,0.13466706379806975,-0.5276492386243297,-0.6186070364015223,,0.41766357421875,-0.45062255859375,-0.2799072265625
676,45.857,0.4954083686237589,-0.3062989543979562,-0.44965114243891025,-0.7518262799986486,-0.6720568413371786,,1.1674652099609375,-0.7945556640625,-1.006378173828125
677,45.906,1.1305347934570897,-0.28386766676212016,-0.6360782732015503,-0.8930191213044719,-0.6853984340819729,,1.8159332275390625,-0.6115570068359375,-1.286346435546875
678,46.225,-2.751510619337169,0.06318444535171586,1.6459334581124643,-0.904742490846548,-0.6555786125012315,,-2.0959320068359375,-0.2584686279296875,0.962738037109375
679,46.275,-0.5081746127905596,-0.6563522944045722,-0.8388903493872039,-0.9608810611032697,-0.6551320102514971,UpperCut,0.1469573974609375,-0.8656005859375,-1.564849853515625
680,46.325,0.2260113840031548,-0.784567963009956,-0.4053635428871295,-0.965146232305534,-0.6732195730280952,,0.89923095703125,-0.97808837890625,-1.1190338134765625
681,46.375,0.3846295631634242,-0.6568573576296456,-0.10391040327060719,-0.9406242355628244,-0.6638476096881383,,1.0484771728515625,-0.9107208251953124,-0.807373046875
682,46.425,0.560737632669659,-0.6799112775628382,-0.09230249606442908,-0.92079318122761,-0.650840736470966,,1.211578369140625,-0.976043701171875,-0.7913818359375
683,46.475,0.40940907187617803,-0.5266509082276304,0.10592162543768979,-0.8876455738691162,-0.608108017967572,,1.01751708984375,-0.892242431640625,-0.5987396240234375
684,46.524,0.37814355744475037,-0.3530924419911197,-0.018612907428352865,-0.8106895748178482,-0.5664365206802496,,0.944580078125,-0.8355865478515625,-0.68670654296875
685,46.574,0.4476646536903286,-0.3658265993004931,-0.022247559040148412,-0.7393076938292105,-0.5140357857627964,,0.961700439453125,-0.94342041015625,-0.656402587890625
686,46.624,0.3349952714266819,-0.2734029953752227,-0.15956032300302692,-0.6094502699551083,-0.4899711592373806,,0.8249664306640625,-0.96453857421875,-0.6908416748046875
687,46.674,0.128648962153377,-0.1278424242390298,-0.20907171271533093,-0.4651375191579736,-0.498975549565373,,0.62762451171875,-0.8950042724609375,-0.6121673583984375
688,46.724,0.022538976199586502,-0.05148523411160788,-0.02666573030670294,-0.4599050298253735,-0.3623182015347885,,0.384857177734375,-0.879119873046875,-0.455322265625
689,46.774,-0.1356365905916188,0.11656608175927485,0.05255140032406852,-0.4109932574029538,-0.7276470886384938,,0.592010498046875,-0.5087738037109375,-0.2293701171875
690,46.823,-0.23328124224865798,0.18191155532261694,-0.06926983191660341,0.3558615966568765,-0.7678118818970955,,0.5345306396484375,-0.4168243408203125,0.158721923828125
691,46.873,-0.17120480987401465,0.16130498630717793,-0.15796281552349267,0.699666285276739,-0.6042339846787022,,0.4330291748046875,-0.407989501953125,0.3995361328125
692,46.923,-0.1002661171235375,0.10743303173071517,-0.14248218946718605,0.7984604016784894,-0.4898535194672875,,0.38958740234375,-0.4174346923828125,0.553619384765625
693,46.973,-0.04588418700456792,0.09313080968200871,-0.09147432314448711,0.7007336075417006,-0.3316050121998804,,0.2857208251953125,-0.579925537109375,0.569610595703125
694,47.023,-0.12836991593071428,-0.103544006813731,0.09766147294745231,0.6898180392305049,-0.3130470399541518,,0.1846771240234375,-0.7911376953125,0.7528076171875
695,47.073,-0.2610702630580771,-0.27333205837120356,0.11621365911980708,0.6917649051059408,-0.2848892327846396,,0.0238189697265625,-0.9655303955078124,0.7793121337890625
696,47.123,-0.3034420364811438,-0.37786253534440584,0.26473407894790124,0.7025949807918769,-0.2613125198795813,,-0.0421295166015625,-1.064727783203125,0.9429168701171876
697,47.172,-0.2596340082659122,-0.38300420109469735,0.2915964734705796,0.7171574454400923,-0.2447719477190372,,-0.014862060546875,-1.0587158203125,0.9869384765625
698,47.222,-0.3308717947461391,-0.4244361478588048,0.29111603324151203,0.7320717514284315,-0.2268373709180141,,-0.104034423828125,-1.0879058837890625,1.0041046142578125
699,47.272,-0.3298830121063856,-0.31968545612128807,-0.09029300311081612,0.7513986618322117,-0.2158845990204481,,-0.1139984130859375,-0.9639739990234376,0.6433868408203125
700,47.322,0.0030222261477929994,0.15473420491541456,-0.07245166076259724,0.4240499680588666,0.0176859224368555,,-0.0146636962890625,-0.750762939453125,0.351531982421875
701,47.372,-0.025621824848183698,0.39885772823939414,-0.09245721468621729,0.2258173930209342,-0.0624565416450587,,0.036834716796875,-0.5734100341796875,0.1329193115234375
702,47.422,-0.30290020951668445,0.5351806412064847,-0.11482724885642209,0.2097835520012142,-0.484189882368247,,0.1812896728515625,-0.3203125,0.0687255859375
703,47.471,-0.1872582981990924,0.8284784796623923,0.022539307886708243,0.1348854637652421,-0.4137139866756549,,0.2264556884765625,-0.0736083984375,0.1453399658203125
704,47.521,-0.0812058395974114,0.949299601920827,-0.2451834290669756,-0.0533069087116544,-0.2925705856911614,,0.21136474609375,-0.005584716796875,-0.2961578369140625
705,47.571,-0.2288245225419009,0.6772935299043167,-0.364524212647229,-0.2627651099115437,-0.1343115830887759,,-0.094512939453125,-0.2788238525390625,-0.624908447265625
706,47.621,-0.026000093541677205,0.1806783132645352,0.21332585340243493,-0.7630831299264724,-0.0926047077994897,,0.0666046142578125,-0.4628448486328125,-0.546478271484375
707,47.671,0.9535071926110912,-0.1101715859755989,-0.11919108271311873,-0.9565220083466596,-0.0414726657873464,,0.9949798583984376,-0.401580810546875,-1.07489013671875
708,47.721,1.2303139591996504,-0.48453333336447446,-0.367887687734473,-0.9999912828219,-0.0114768122847247,,1.241790771484375,-0.48870849609375,-1.3678131103515625
709,48.07,-2.2327459163561856,-0.06981728192722615,2.0548899100340585,-0.9958531076550684,0.0241052799328771,,-2.2568511962890625,-0.1607666015625,1.059326171875
710,48.119,0.037239438309963,-0.8230082585263151,0.1339484362688067,-0.968261862180418,0.042213803544338,,-0.004974365234375,-1.072723388671875,-0.8334503173828125
711,48.169,0.8986265023397912,-0.42884513248663914,-0.7199308961300414,-0.9490358682163204,-0.0627077261758338,UpperCut,0.961334228515625,-0.7433929443359375,-1.6670989990234375
712,48.219,1.122167639779522,-0.38320160977177287,-0.36917752844904883,-0.9486633576580128,-0.1513308953767281,,1.27349853515625,-0.6958465576171875,-1.306915283203125
713,48.269,1.2057403359895553,-0.3081626566850696,-0.06906338358297737,-0.9685980597143616,-0.2161194052213823,,1.4218597412109375,-0.5509185791015625,-1.0147705078125
714,48.319,0.7558112457569648,-0.28500621471039106,-0.15007867985856505,-0.987020333671136,-0.2585777923289727,,1.0143890380859375,-0.4401397705078125,-1.1035308837890625
715,48.369,0.5673994681017418,-0.36621574497228826,-0.4720302024778299,-0.9935585844690308,-0.2607102731091957,,0.8281097412109375,-0.475616455078125,-1.4312286376953125
716,48.418,0.23115839590209009,-0.6903202640814582,-0.20546300293025155,-0.9999739842270564,-0.2544220484338474,,0.4855804443359375,-0.697296142578125,-1.1725311279296875
