Index,Time,Acceleration X,Acceleration Y,Acceleration Z,Orientation X,Orientation Z,Punch Type,Raw Acceleration X,Raw Acceleration Y,Raw Acceleration Z
0,0.0,0.015253838385084099,-0.04601385329588642,-0.16367157772917873,-0.9626797210707296,0.0070293510803966,,0.0082244873046875,-0.316650390625,-1.1263275146484375
1,0.05,0.2581350427816911,0.1943637954800725,-0.13624827678220996,-0.9511302300318848,0.0199758630941911,,0.2381591796875,-0.1143646240234375,-1.087188720703125
2,0.1,0.5588563767991925,0.12680535245973268,0.19518143337281801,-0.922158158678654,0.0921510545335675,,0.466705322265625,-0.25836181640625,-0.723052978515625
3,0.15,0.5972889541766677,0.18939848622893807,0.400638031650975,-0.8798273387936458,0.2238453506610427,,0.373443603515625,-0.273834228515625,-0.4568634033203125
4,0.2,-0.021165344079240395,-0.07568439779423641,-0.057634234639334925,-0.6058432115553606,0.2171769410770096,,-0.23834228515625,-0.8522796630859375,-0.649017333984375
5,0.249,-0.006112884236472604,-0.030489569538650674,-0.025962233215409358,-0.6483164814942282,0.1509000552166524,,-0.157012939453125,-0.78314208984375,-0.6668548583984375
6,0.299,-0.0030433758813743998,0.14545475073468106,0.15092230501092718,-0.7200289516621146,-0.0145179852563744,,0.011474609375,-0.5484161376953125,-0.56903076171875
7,0.349,0.015425136141051093,0.08042877335165999,0.030257671480316883,-0.3521116687678396,0.1766800189535511,,-0.1612548828125,-0.8408050537109375,-0.316314697265625
8,0.399,-0.0463921455555123,0.12102085207755742,0.078928066878028,-0.5462746962999332,-0.3057152656726998,,0.2593231201171875,-0.676483154296875,-0.441192626953125
9,0.449,0.022311976080099605,-0.052640540691528015,-0.07282036282192439,-0.8104253001924333,-0.2409936879824004,,0.2633056640625,-0.6212158203125,-0.8593597412109375
10,0.499,0.01182268231340039,-0.041022092263182985,-0.05842868035829174,-0.8184281774838408,-0.1633787337022246,,0.175201416015625,-0.60791015625,-0.8658599853515625
11,0.549,0.005709264496632005,-0.043505353557952486,-0.05704756912963371,-0.7951592464517891,-0.0793279669486805,,0.0850372314453125,-0.6479949951171875,-0.849700927734375
12,0.598,-0.004958772184404298,-0.024024105045220567,-0.021563781872851906,-0.6679730106478013,0.1518252854327832,,-0.1567840576171875,-0.75958251953125,-0.681793212890625
13,0.648,-0.0007871487319984008,-0.05164360878020546,-0.05891531093961,-0.751989950265506,0.0100465915023766,,-0.010833740234375,-0.710784912109375,-0.8108673095703125
14,0.698,0.0007916027553494034,-0.0105341532320532,-0.013111347009443719,-0.7795597551203602,-0.0470141833774631,,0.0478057861328125,-0.63616943359375,-0.79180908203125
15,0.748,0.010045495969494903,0.08498080304258859,0.09579314793207405,-0.7480629673040432,0.0782065067116824,,-0.0681610107421875,-0.5766143798828125,-0.6499786376953125
16,0.798,-0.004557800931274399,0.07941917026322665,0.11933569590797544,-0.8324942218984863,-0.0317794806187744,,0.0272216796875,-0.474334716796875,-0.712738037109375
17,0.848,0.005505062424255601,0.07453152999798307,0.09515503550876758,-0.787254484982313,0.0454983485570681,,-0.0399932861328125,-0.5414581298828125,-0.6912841796875
18,0.897,0.4655331570727626,0.2859990890052134,0.20255637190995657,-0.7727121589284682,-0.0185671847241124,,0.484100341796875,-0.3486480712890625,-0.5700225830078125
19,0.947,-0.05869912008280179,0.15950220432484497,0.20555792467725487,-0.7900523778394293,-0.2200760732078018,,0.161376953125,-0.438507080078125,-0.56512451171875
20,0.997,0.04348600010107451,0.19954297144961974,0.06346676378893779,-0.8368066037033012,-0.1800857772426755,,0.22357177734375,-0.3390045166015625,-0.7596588134765625
21,1.047,-0.04101518366339271,0.1300807758397644,0.1789596396719325,-0.8088901911612353,-0.1822810528040177,,0.141265869140625,-0.448028564453125,-0.6163787841796875
22,1.097,-0.023073583486194427,0.07112283110464113,0.06699342594198232,-0.6856592909950058,-0.2298301752830694,,0.206756591796875,-0.6373138427734375,-0.600311279296875
23,1.147,0.6915977882517383,-0.3505940006630214,-0.29201098541762704,-0.7684934146142332,-0.2259284568654493,,0.9175262451171876,-0.973907470703125,-1.0406341552734375
24,1.407,-2.4272943538065657,0.9630590549398085,0.266673672338156,-0.8361180209039503,-0.297854046189378,Body,-2.1294403076171875,0.4394073486328125,-0.531494140625
25,1.457,-0.9778395422671808,-0.31400185225988597,-0.8158225287803921,-0.8432149844004326,-0.3170881994937433,,-0.6607513427734375,-0.8238372802734375,-1.6155242919921875
26,1.507,-0.5895236134694406,-0.7790012439400696,-0.4051050068607144,-0.8216441004453708,-0.3744814992116281,,-0.2150421142578125,-1.307525634765625,-1.166961669921875
27,1.557,-0.3189274632530119,-0.038437586820947944,-0.698288147090019,-0.838421683222177,-0.4785038792686369,,0.159576416015625,-0.5170135498046875,-1.4344940185546875
28,1.606,-0.10047092410235126,0.2666390029295984,-0.4561688524114952,-0.8200255257267808,-0.5491861340632888,,0.4487152099609375,-0.2116546630859375,-1.1414642333984375
29,1.656,-0.3709270830624587,0.4178406748857001,-0.18358817408779926,-0.7986533416378782,-0.5929577227108962,,0.2220306396484375,-0.066741943359375,-0.826690673828125
30,1.706,-0.7488760570294047,0.07558635503827471,-0.11113447084058725,-0.8271531166359046,-0.6209616283184672,,-0.1279144287109375,-0.3649139404296875,-0.759490966796875
31,1.756,-0.3750675058265093,0.09964204812646271,-0.7382828059798694,-0.8766544545184879,-0.6783054208655718,,0.3032379150390625,-0.253875732421875,-1.3824310302734375
32,1.806,0.3746396143420182,-0.09909584034932362,-0.37356655720248255,-0.898428092122953,-0.7246798436657943,,1.0993194580078125,-0.4016876220703125,-0.9926605224609376
33,1.856,0.9964600112813998,-0.11519967839424897,-0.17540971279999196,-0.9260189444702072,-0.7577361557107877,,1.7541961669921875,-0.3615264892578125,-0.779693603515625
34,2.165,-2.7584018398331063,0.3676073883685719,0.7992654964079269,-0.95105531725008,-0.7075900722549814,,-2.050811767578125,0.1492462158203125,0.127227783203125
35,2.215,-1.0933475639411188,-0.9812296486301159,-0.2563816850163081,-0.976990338153171,-0.6396579887458064,,-0.4536895751953125,-1.145172119140625,-1.007354736328125
36,2.264,-0.474502471618686,-1.4201602484071103,-0.4378056275864538,-0.9880542298808684,-0.621841338806186,Body,0.1473388671875,-1.5408477783203125,-1.2115936279296875
37,2.314,-0.01696427772308895,-1.1974711142806604,-0.45152641123801307,-0.9940822575281908,-0.6187861771371514,,0.6018218994140625,-1.282806396484375,-1.2324371337890625
38,2.364,0.06091186795193726,-1.1507087104626181,-0.1517871340977257,-0.9924710533226035,-0.6252758761886877,,0.686187744140625,-1.2462921142578125,-0.9263153076171876
39,2.414,-0.005704162894127229,-0.9566512068667015,0.061246201153269175,-0.99658238681724,-0.6508762820347522,,0.645172119140625,-1.0193634033203125,-0.695343017578125
40,2.464,0.06309762827780174,-0.053216535317332836,-0.02578241426472383,-0.4360059100847379,-0.7296574986753233,,0.792755126953125,-0.668609619140625,-0.3239288330078125
41,2.514,0.026083010021322184,0.0921123454210977,-0.25237126768736506,-0.4323191953927672,-0.7624454323614903,,0.7885284423828125,-0.4913482666015625,-0.5321044921875
42,2.563,0.030530076342557444,-0.02440355162006913,-0.02474492608428891,-0.712001013990159,-0.6599759051027551,,0.6905059814453125,-0.55194091796875,-0.559661865234375
43,2.613,0.001224236585656624,-0.0014217323191810793,-0.0019202926080102989,-0.8036986294048636,-0.4560053776721559,,0.4572296142578125,-0.5309906005859375,-0.717193603515625
44,2.663,-0.09657423641462037,0.10698183202028799,0.12639655748079037,-0.7632942674300934,-0.5037855401255579,,0.4072113037109375,-0.4510955810546875,-0.532958984375
45,2.713,-0.10703108230472724,0.14658606953962083,0.13880166460039844,-0.7859899958115278,-0.5113279573047272,,0.404296875,-0.3847198486328125,-0.5366668701171875
46,2.763,-0.149337923780754,0.1690136154334193,-0.06703340758131238,-0.787803684423452,-0.489334261671379,,0.339996337890625,-0.368133544921875,-0.7540740966796875
47,2.813,0.0034837286736195128,-0.005605254569054696,-0.008204060196062346,-0.8256846404609919,-0.3308668572638805,,0.3343505859375,-0.5379638671875,-0.787384033203125
48,2.862,-0.1456110844567881,-0.2599954265327983,-0.2666244170642573,-0.7721598944067585,-0.2637446293786631,,0.118133544921875,-0.8729248046875,-1.011444091796875
49,2.912,-0.36679694913892924,-0.7522399674356302,-0.538446952003416,-0.7700306931608981,-0.1944641854670542,,-0.172332763671875,-1.3780670166015625,-1.2937774658203125
50,2.962,-0.0711593634540583,-0.5685951474676038,-0.44778212845420906,-0.7855365678723297,-0.1387252814228083,,0.06756591796875,-1.181427001953125,-1.2257232666015625
51,3.012,-0.4059618303823352,-0.6123882223798416,-0.503689669922206,-0.7783489389815175,-0.0883959124135852,,-0.31756591796875,-1.237762451171875,-1.27899169921875
52,3.062,-0.5331207334272956,-0.5459196080277693,-0.4462537382331171,-0.7722241028520864,-0.0641265928022956,,-0.468994140625,-1.179962158203125,-1.216888427734375
53,3.112,-0.5932137758349245,-0.5478374596092956,0.04500132488130382,-0.7442268979146421,-0.0873544008349245,,-0.505859375,-1.2132110595703125,-0.696380615234375
54,3.162,-0.8017259771747035,-0.4965192818068309,0.06439187750000153,-0.7602896111997856,-0.1427599127215785,,-0.658966064453125,-1.1394500732421875,-0.6881103515625
55,3.211,-0.508636822190937,-0.11238350059250402,-0.04938323681485868,-0.7549967878525018,-0.2203220028549995,,-0.2883148193359375,-0.7519989013671875,-0.78582763671875
56,3.261,0.011103786813482702,0.1945072888759133,0.21164359915798592,-0.7362859534140066,0.0386001247041077,,-0.027496337890625,-0.481658935546875,-0.5240936279296875
57,3.311,-0.061788071995935195,0.3968848713862979,0.2997718073609247,-0.6027092353935097,-0.1232809919178102,,0.061492919921875,-0.394989013671875,-0.29833984375
58,3.361,-0.2736610980380952,0.6759272837775917,-0.015422739970586945,0.0228112212558073,-0.3751930804599702,,0.101531982421875,-0.2507781982421875,0.0057220458984375
59,3.411,-0.3471679745549436,0.8789071918336125,0.2323511795912777,0.0216051601476066,-0.3952331601018186,,0.048065185546875,-0.039459228515625,0.252197265625
60,3.461,-0.5804021194882274,1.1336643568487552,0.08447463990304191,-0.0555085866554727,-0.4153783157772899,,-0.1650238037109375,0.2254180908203125,0.0339813232421875
61,3.51,-0.5394488329045287,1.2342133311059285,-0.005901913544891391,-0.146430744811601,-0.4161120409123412,,-0.1233367919921875,0.3347015380859375,-0.1390533447265625
62,3.56,-0.3307363077091238,1.0895249991012785,-0.40430702950102454,-0.2317904638833026,-0.4003163858341238,,0.069580078125,0.1981048583984375,-0.6167144775390625
63,3.61,0.1646365705999428,0.4913980627759268,-0.8998988975244312,-0.4222672067208794,-0.3701382096734947,,0.5347747802734375,-0.3506927490234375,-1.29217529296875
64,3.929,-2.3711356652945264,0.5159821077533707,1.2793150708942393,-0.3274653487837548,-0.3067435754507764,,-2.06439208984375,-0.383331298828125,0.9676361083984376
65,4.019,0.2155240270508405,-0.29635076386864023,-1.9374141103960005,-0.2719455692807471,-0.2831942346679095,Body,0.49871826171875,-1.219268798828125,-2.1982269287109375
66,4.069,-0.04657327922105339,-0.33175223728278114,-0.28201765129191225,-0.0959168971933358,-0.2108494022679284,,0.164276123046875,-1.3047637939453125,-0.3757781982421875
67,4.119,-0.0033661954335421906,0.014617397335414672,0.01512114780130025,-0.7189815379145112,-0.1580445401601047,,0.1546783447265625,-0.6716766357421875,-0.69482421875
68,4.168,-0.09141563290146698,0.3344474374443913,0.027553260904786145,-0.0821062638433598,-0.262832869229592,,0.171417236328125,-0.62713623046875,-0.051666259765625
69,4.218,-0.0457218719760111,0.2544267525154895,0.13983309560992335,-0.4816499974052939,-0.1555698944369486,,0.1098480224609375,-0.61126708984375,-0.3359527587890625
70,4.268,0.2067282114405318,-0.21849860209529526,-1.470517456271187,-0.5601724173549806,-0.1426217641454057,,0.3493499755859375,-1.0384063720703125,-2.02496337890625
71,4.318,0.0686308959074827,-0.5072239927443223,-0.4837785693975666,-0.5791915477007074,-0.1152222535065798,,0.1838531494140625,-1.316986083984375,-1.059112548828125
72,4.368,-0.09912787820685848,0.22592980736053914,0.12544713282119196,-0.4854376224222588,-0.358145822542796,,0.2590179443359375,-0.5903472900390625,-0.327789306640625
73,4.418,0.06921824993389619,0.9520397127756379,1.221072719632501,-0.5827787864555268,-0.4963945430348538,,0.56561279296875,0.2465972900390625,0.7151641845703125
74,4.467,0.17162466889116923,0.9704994967833184,0.5215302420718809,-0.7037346969526156,-0.5655426895072683,,0.7371673583984375,0.3845672607421875,-0.0588531494140625
75,4.517,-0.06918342865206528,0.09642583970103857,-0.013574631992946715,0.1394033488737783,-0.5791779354880028,,0.5099945068359375,-0.7108154296875,0.100067138671875
76,4.816,-2.753239975836191,1.3734142589539222,0.22368691539622546,0.0326030530478856,-0.6501515969299412,,-2.10308837890625,0.614013671875,0.2484588623046875
77,4.866,-0.9765476918185537,-0.9244291438148649,-1.998792713920579,-0.083746399029661,-0.6123356556857412,Body,-0.3642120361328125,-1.712249755859375,-2.06500244140625
78,4.916,-1.157677623028416,-0.8708571036414919,-2.137037854269015,-0.0995707481442654,-0.6039209091612286,,-0.5537567138671875,-1.6639404296875,-2.216400146484375
79,4.966,-0.7221519272636482,-0.1310817843032498,-1.2340962544099454,-0.0604907954788094,-0.6533347885917732,,-0.068817138671875,-0.8867645263671875,-1.2798919677734375
80,5.016,-0.6483349566861306,0.39027890312692126,-0.9284700340916621,0.0399131293831186,-0.7358593707486307,,0.0875244140625,-0.28631591796875,-0.9014434814453124
81,5.066,-0.5231095046593797,0.6831299503550747,-0.8746558945275433,0.0358501893569574,-0.8268357009484422,,0.3037261962890625,0.1210479736328125,-0.8544921875
82,5.115,-0.3324694926894567,0.8934728600521338,-0.6696742459879889,0.0294911583688952,-0.8950915630019567,,0.5626220703125,0.447784423828125,-0.656524658203125
83,5.165,-0.5257110307092828,0.6768422444984976,-0.5046194536397471,0.0144303101139424,-0.9208526322717828,,0.3951416015625,0.2869720458984375,-0.498992919921875
84,5.215,-0.3254635627986572,0.4519655549583389,-1.3220716908106673,-0.0850024279402473,-0.9335568245174072,,0.60809326171875,0.0948333740234375,-1.3525390625
85,5.265,-0.319746749550866,-0.033240346961441014,-1.5674303442722197,-0.1612384624265537,-0.935774581582116,,0.61602783203125,-0.3812255859375,-1.6242828369140625
86,5.315,-0.5638757000093503,-0.5226482104820931,-1.4282300518871371,-0.2326217744387201,-0.9329705486421628,,0.3690948486328125,-0.8727264404296875,-1.511962890625
87,5.365,0.3958865864377902,-0.5926014436820872,-1.5773194451082861,-0.3336961554962666,-0.9276912944215848,,1.323577880859375,-0.944549560546875,-1.701904296875
88,5.664,-3.8478421764816244,0.246776489341602,-0.4831085328853332,-0.4084277305871736,-0.9221067028488118,,-2.9257354736328125,-0.106414794921875,-0.641143798828125
89,5.753,-1.1377026881153531,-0.8625007558583524,-1.877153799305838,-0.4602918819177612,-0.9584424342091032,Body,-0.17926025390625,-1.1157684326171875,-2.0084686279296875
90,5.803,-0.5740188615080511,-0.3020300401949696,-1.3666261440794765,-0.4603392848386304,-0.9898056046721136,,0.4157867431640625,-0.428466796875,-1.43218994140625
91,5.853,-0.35822089857807216,-0.13324761765736662,-1.222843732322749,-0.4393448530931482,-0.9998529786561972,,0.641632080078125,-0.148651123046875,-1.230377197265625
92,5.903,-0.3588591572666535,-0.057411040605526764,-0.9597351765890543,-0.4265124186237379,-0.996142482461966,,0.6372833251953125,-0.13677978515625,-0.997161865234375
93,5.953,-0.2323494588742635,0.2835800091262334,-0.3709669411223746,-0.4914497049138757,-0.979740205944576,,0.7473907470703125,0.109161376953125,-0.469390869140625
94,6.003,-0.1522547807317821,0.3673184943630198,-1.0948556892578525,-0.4999202594395676,-0.9683100785833446,,0.8160552978515625,0.1510162353515625,-1.2197113037109375
95,6.052,-0.8771232647652241,-0.2571379046551649,-0.9196245653220838,-0.4726436632378913,-0.9714988751167866,,0.0943756103515625,-0.466033935546875,-1.0316619873046875
96,6.102,-0.7985095119050833,-0.16798619994356845,-1.0620897284766684,-0.5709767213698889,-0.9666308497957083,,0.168121337890625,-0.3782958984375,-1.2083587646484375
97,6.152,-0.23935430403041114,-0.052826952115013454,-1.022224990410858,-0.705239667127421,-0.9562885081319736,,0.7169342041015625,-0.2601470947265625,-1.22845458984375
98,6.511,-3.2715713288980792,-0.17500254613610688,-0.018404527748413085,-0.7578046941259501,-0.9584152009683916,,-2.3131561279296875,-0.3612060546875,-0.2346649169921875
99,6.601,-0.9382165720966531,-0.8825341085944556,-1.8919672519592217,-0.7958110155729902,-0.9484247019794656,Body,0.0102081298828125,-1.074493408203125,-2.1442413330078125
100,6.651,-0.6762423846970002,-0.32880263397406784,-0.8608752059441203,-0.8206084785788114,-0.9141269061813752,,0.237884521484375,-0.5605010986328125,-1.193572998046875
101,6.7,-0.6168646924036744,0.022322044085837878,-0.8250085385190353,-0.8320448019678106,-0.8554663769739869,,0.2386016845703125,-0.2649383544921875,-1.255889892578125
102,6.75,-0.6232808788284682,0.525798264150082,-0.8479589375990686,-0.8629816550373096,-0.7725576122269057,,0.1492767333984375,0.2050018310546875,-1.395904541015625
103,6.8,0.14192695391634258,0.7513253375940511,-0.9981484035863659,-0.86189460917674,-0.7195537589742824,,0.861480712890625,0.3991851806640625,-1.5966796875
104,6.85,-0.1467778090620251,0.4210143372515973,-0.47838737350070404,-0.8522058970590388,-0.6936528090620251,,0.546875,0.0441436767578125,-1.0922393798828125
105,6.9,-0.1710026992608813,0.11118119648379038,-0.077904206109362,-0.8733052736849631,-0.6501591934015063,,0.479156494140625,-0.25897216796875,-0.7414398193359375
106,6.95,0.029437335301959022,0.03166758869832598,-0.30890493131487595,-0.9261540165324356,-0.582897869776166,,0.612335205078125,-0.2747802734375,-1.0614471435546875
107,6.999,0.8395234389400202,-0.24359399098347748,-1.181330292125061,-0.969113891726144,-0.5324248032474798,,1.3719482421875,-0.4523468017578125,-2.0016632080078125
108,7.338,-2.7400516138477315,-0.14954031374207905,0.8996860293605345,-0.9856192990877812,-0.5320590601367942,,-2.2079925537109375,-0.2926177978515625,0.065155029296875
109,7.508,0.21661754803938754,-0.2097025166593687,-1.2056323030416194,-0.9795620810783896,-0.4673424128981124,Body,0.6839599609375,-0.3875274658203125,-2.0716400146484375
110,7.558,0.3970610354014499,-0.06912881324761799,-0.39970982246260356,-0.9759382656813836,-0.4210389401844876,,0.8180999755859375,-0.26690673828125,-1.2849273681640625
111,7.608,0.6632953035947919,0.10906543751856823,0.27864670596876195,-0.9747789461794492,-0.3549084317567705,,1.0182037353515625,-0.099578857421875,-0.6326751708984375
112,7.657,0.2723060178514386,-0.006626797652577593,0.5537140330488663,-0.9735016036750324,-0.3217796755079364,,0.594085693359375,-0.22314453125,-0.368011474609375
113,7.707,0.16017399322350329,-0.2341146127569359,0.36293522335780837,-0.9826792666916462,-0.2863897274796217,,0.446563720703125,-0.4116668701171875,-0.578582763671875
114,7.757,0.12410906785440001,-0.6845817096117084,0.15919288406685472,-0.9978769063781144,-0.2678739643721625,,0.3919830322265625,-0.7473297119140625,-0.802215576171875
115,7.807,1.1067741572504888,-1.0553682767617398,-0.5694718895793538,-0.9969497385612404,-0.2603980839604486,,1.3671722412109375,-1.1307220458984375,-1.5320281982421875
116,8.125,-2.4798393758212702,-0.08958718541640445,1.6915621652161588,-0.9918124674367864,-0.283886006680645,,-2.195953369140625,-0.2120361328125,0.7405548095703125
117,8.174,-1.601721195256407,-1.1117716081179023,-1.0424441921707697,-0.9828527572106424,-0.3117889442798444,,-1.2899322509765625,-1.2869720458984375,-1.9763031005859375
118,8.274,0.3289490724622048,-0.31829649882322864,-1.1007871571655587,-0.9797565963294924,-0.2549895261706077,,0.5839385986328125,-0.511871337890625,-2.04815673828125
119,8.324,0.5705724778873282,-0.3261759890992671,-0.583679301651003,-0.9764064473462016,-0.1972955641048593,,0.7678680419921875,-0.537872314453125,-1.5408935546875
120,8.374,0.7432202546975556,-0.3480980011745856,0.2898575858039206,-0.9699749166185484,-0.158558920107132,,0.9017791748046876,-0.588226318359375,-0.6678466796875
121,8.424,0.6144858940525643,-0.04638947583264297,0.3956076597952879,-0.9559847109903974,-0.0925453559474357,,0.70703125,-0.3385467529296875,-0.5562744140625
122,8.474,0.4425612730344119,0.09923518122128844,-0.13803966615647822,-0.949753763210264,-0.0777939515749631,,0.520355224609375,-0.2128143310546875,-1.0849151611328125
123,8.523,0.2249355157630411,0.051839499035061576,0.3719800642919493,-0.9384120039429966,-0.0680790106041464,,0.2930145263671875,-0.292877197265625,-0.5642547607421875
124,8.573,0.2096563497814285,0.17907978239823036,-0.06198353817955482,-0.8834046144404293,-0.0557245095935715,,0.265380859375,-0.2888031005859375,-0.9440155029296876
125,8.623,1.1382516620566239,0.26634405433213215,-0.39471036701164985,-0.847159559784169,-0.0959554912636887,,1.2342071533203125,-0.262542724609375,-1.2379608154296875
126,8.963,-2.131277136531879,1.0929313185390725,1.06851051646435,-0.8501360198242832,-0.0496120974693788,,-2.0816650390625,0.5670166015625,0.21942138671875
127,9.013,-0.7466744086916577,0.07854384211594045,-0.6272229049130108,-0.8310959769493235,-0.0797279975588452,Body,-0.6669464111328125,-0.4758148193359375,-1.4556732177734375
128,9.063,-0.8392109989503688,-0.7709294956679495,-0.8991291151052582,-0.8394514777579885,-0.1451497196534938,,-0.694061279296875,-1.3086090087890625,-1.7296905517578125
129,9.133,0.9040800998026091,0.665940131579174,-1.2823337645996218,-0.7861032405352641,0.0257536837869841,,0.878326416015625,0.0480499267578125,-2.06817626953125
130,9.183,1.049928341586317,0.5455172265990155,-0.8123282732946797,-0.778200390100774,0.1234146697113169,,0.926513671875,-0.07769775390625,-1.5845794677734375
131,9.232,0.8408977619976505,0.3909914985697278,-0.2566450306797077,-0.7811320860666474,0.1818706623882756,,0.659027099609375,-0.22296142578125,-1.024749755859375
132,9.282,0.8469176462350843,0.5919043362531734,-0.4320761667920354,-0.774692955271934,0.2383971384225843,,0.6085205078125,-0.0222015380859375,-1.1844329833984375
133,9.332,0.6389943014679246,0.5380068701351234,-0.026057977879595406,-0.789481294823562,0.2410908590851121,,0.3979034423828125,-0.0576629638671875,-0.7922515869140625
134,9.382,0.6212771939970193,0.43508637095093716,-0.1635843428959598,-0.7666098320854109,0.2419894742704568,,0.3792877197265625,-0.1879425048828125,-0.90740966796875
135,9.432,0.6513766979340307,0.26326634690683237,-0.39122064253331723,-0.7104474529406125,0.2357120250824682,,0.4156646728515625,-0.420654296875,-1.0816497802734375
136,9.482,0.995602585041589,-0.0067057227800820796,-0.36916065321298464,-0.665782650320577,0.2003907930494015,,0.7952117919921875,-0.7377166748046875,-1.0214385986328125
137,9.531,1.1574046038515196,-0.2757697163670142,-1.350319425147665,-0.5950996197709073,0.151133241546832,,1.0062713623046875,-1.0701904296875,-1.9385833740234375
138,9.88,-1.846971730638693,0.41384645719555957,-0.151251854588683,-0.4798799275695409,0.1793344217050571,,-2.02630615234375,-0.4492645263671875,-0.62335205078125
139,10.0,1.2295327429365324,0.4503554429545036,-1.6913599508107477,-0.4870656389985661,0.2566628698896573,Body,0.972869873046875,-0.3937530517578125,-2.162109375
140,10.05,0.9598846788565853,0.1425846326740834,-0.8423202620333141,-0.5109668074735656,0.2950744981925228,,0.6648101806640625,-0.678741455078125,-1.330535888671875
141,10.1,1.1622096513646607,0.26855868845946007,-0.5414681506031789,-0.499082045864382,0.3646022294896607,,0.797607421875,-0.5383453369140625,-1.006195068359375
142,10.15,1.1909446944241908,0.4804036335929599,-0.7120554449496053,-0.4666282395492551,0.4383201827054409,,0.75262451171875,-0.3145599365234375,-1.1314697265625
143,10.199,1.3774283661876707,0.5545068995337101,-0.1569921033368889,-0.5331201307745026,0.4804251923595457,,0.897003173828125,-0.1875,-0.6245574951171875
144,10.249,-0.030596309449062997,0.07723050978126478,0.08476348966308234,-0.7391895969455823,-0.257799678589688,,0.227203369140625,-0.5735015869140625,-0.6294403076171875
145,10.299,-0.007963142748055707,0.03583997321314314,0.041654673144752574,-0.7580326462533437,-0.1434154132558682,,0.1354522705078125,-0.6096343994140625,-0.7085418701171875
146,10.349,0.0076498645085404104,-0.04547594998223681,-0.03457073552250778,-0.6051832803987739,-0.1327309948664596,,0.140380859375,-0.8345184326171875,-0.6343994140625
147,10.399,1.522517691445394,-0.027078097374131804,-1.2054597839668175,-0.7538397446665135,-0.188816537070231,,1.711334228515625,-0.6723175048828125,-1.94573974609375
148,10.716,-2.4322849974695213,-0.05395094598386585,-0.01221728135815392,-0.8686119380036189,-0.1524082884851463,,-2.279876708984375,-0.5436553955078125,-0.8706817626953125
149,10.778,-0.3489254042212907,-0.23860171963601617,-1.2401438292581446,-0.9154492333154886,-0.1455562635962907,Body,-0.203369140625,-0.636749267578125,-2.145843505859375
150,10.827,-0.35782607778822373,-0.32713995272730684,-0.2425704731177737,-0.9381606810082574,-0.1644819615772862,,-0.1933441162109375,-0.6686248779296875,-1.1679534912109375
151,10.877,-0.2298214704076718,-0.266294141875957,-0.5622845644149767,-0.97156528397989,-0.2182095319311093,,-0.0116119384765625,-0.4973602294921875,-1.51043701171875
152,10.927,0.319487261868081,-0.2438355946865957,-0.732390722562459,-0.978771755473005,-0.2571881531709815,,0.5766754150390625,-0.44189453125,-1.6782379150390625
153,10.977,0.07117700019757212,-0.4135885619782901,-0.9254488948082767,-0.9872396502918798,-0.3276267107399279,,0.3988037109375,-0.5640411376953125,-1.8582000732421875
154,11.027,0.020742458837351818,-0.4211814713053017,-0.4444718796895627,-0.9884024958839034,-0.3974093966313982,,0.41815185546875,-0.5605316162109375,-1.351470947265625
155,11.077,0.3885885928276378,-0.3043832788822608,-0.27174485135041493,-0.9864106368416632,-0.4449380185004872,,0.833526611328125,-0.4515228271484375,-1.1551361083984375
156,11.126,0.10274879574332096,-0.5479816277025455,-0.20650750354714975,-0.9749087716129382,-0.4621163165613665,,0.5648651123046875,-0.745391845703125,-1.071075439453125
157,11.176,0.684039358536821,-0.522197175693195,-0.18720425903433757,-0.9831584827790376,-0.460217233260054,,1.144256591796875,-0.6844482421875,-1.06005859375
158,11.485,-2.4879851105605995,-0.5112965405394887,0.2908454975062874,-0.9937352905098442,-0.4548735382949744,,-2.033111572265625,-0.6108245849609375,-0.5941314697265625
159,11.535,-1.7763285318347752,-1.5255325397582813,-0.9413389951533768,-0.9964787903760308,-0.4192270914050877,,-1.3571014404296875,-1.601654052734375,-1.8460235595703125
160,11.585,-1.1028207171324116,-1.1106224492606385,-0.5081153273155485,-0.9976185179629578,-0.448874794280849,Body,-0.6539459228515625,-1.1722564697265625,-1.3995819091796875
161,11.635,-0.575462832564979,-0.44318557516088486,-0.7607631049621406,-0.9939866002659584,-0.5346760894009165,,-0.0407867431640625,-0.5357208251953125,-1.600738525390625
162,11.685,-0.5419007259723534,-0.21432133427930933,-0.3748143063486029,-0.9871364126757834,-0.6076966244098534,,0.0657958984375,-0.3412933349609375,-1.1587677001953125
163,11.735,-0.3442976947170644,0.24113120826404838,-0.1764720188071328,-0.9951261792004626,-0.6975234027248769,,0.3532257080078125,0.17047119140625,-0.8895416259765625
164,11.784,-0.22620689508959668,0.39541765442054533,0.009680334747861452,-0.9996878225819495,-0.7718459331755342,,0.5456390380859375,0.3795318603515625,-0.6259307861328125
165,11.834,-0.3871862436169953,0.2483575623517692,-0.5890262586266891,-0.9978901701517092,-0.8118383432263703,,0.424652099609375,0.21044921875,-1.1716766357421875
166,11.884,-0.6233684610742829,-0.19228876830818512,-0.7304285113961062,-0.9959541426822748,-0.8172161173242829,,0.19384765625,-0.24407958984375,-1.3044281005859375
167,11.934,-0.5836425570913745,-0.5632959625399735,-0.4614796900313134,-0.9865166202205092,-0.7986388949819995,,0.214996337890625,-0.6617889404296875,-1.05517578125
168,12.007,0.17678118592643433,-0.08263806088500023,-1.2987423656125228,-0.9315638737780216,-0.7622446929798157,,0.93902587890625,-0.3179779052734375,-1.9017333984375
169,12.062,0.13589035323295062,-0.20245143623258205,-0.8643457748086254,-0.9118518768516845,-0.6430250520404869,,0.7789154052734375,-0.516845703125,-1.56268310546875
170,12.333,-2.6972184292954995,0.06405117138583794,2.090077302186283,-0.908616609203014,-0.5852646939439369,,-2.1119537353515625,-0.2745819091796875,1.35333251953125
171,12.382,-1.3026018590177737,-0.9639131318104346,-1.380665492786533,-0.8784217712764845,-0.5616198033537112,Body,-0.7409820556640625,-1.35931396484375,-2.1074676513671875
172,12.432,-0.6480304810662376,-0.765789524716056,-0.7347877303780351,-0.8769924043192071,-0.5870411011834251,,-0.0609893798828125,-1.15478515625,-1.44476318359375
173,12.482,-0.5606513430293975,-0.2357918911973128,-0.4460161463450828,-0.8693228209934025,-0.6258063723262725,,0.065155029296875,-0.6212921142578125,-1.1240692138671875
174,12.532,-0.3247984766597266,0.10518354169429678,-0.008155346019817045,-0.8722916024169238,-0.6689452051753516,,0.344146728515625,-0.2582855224609375,-0.6565399169921875
175,12.582,-0.5016166632650344,0.15610836354011398,-0.1159638979620975,-0.8858548926109137,-0.6706077521322219,,0.1689910888671875,-0.1880645751953125,-0.773101806640625
176,12.632,-0.5229081534886657,0.03632510608175732,-0.5972414081505014,-0.8839804250156841,-0.6405534171605407,,0.117645263671875,-0.32269287109375,-1.27606201171875
177,12.682,-0.13772410981957128,-0.2924059570377855,-0.09906935371310999,-0.8979669342165641,-0.6293622934133213,,0.49163818359375,-0.6343841552734375,-0.7968902587890625
178,12.731,0.03072100175204484,-0.19903153053832395,-0.8082654095443987,-0.8447932206459735,-0.6623942326229552,,0.693115234375,-0.5998992919921875,-1.4411468505859375
179,12.781,0.14005530963232105,0.006438141263793051,-0.7527701495211364,-0.8060273087732436,-0.7088369022817415,,0.8488922119140625,-0.4110565185546875,-1.321319580078125
180,12.831,-0.045280882113096,-0.03743453532986818,-0.4212300113963465,-0.7738328227928968,-0.691978880159971,,0.646697998046875,-0.49468994140625,-0.9798736572265624
181,12.881,0.018315730613585823,0.01234987276922217,-0.5151497041894777,-0.8182025686644461,-0.6910501141129767,,0.7093658447265625,-0.4032135009765625,-1.1065521240234375
182,12.931,-0.2032657397344303,-0.2417658562205161,-1.2615336825774304,-0.8914532124591915,-0.6494785082891178,,0.4462127685546875,-0.5863037109375,-1.9393768310546875
183,12.981,-0.6524067615255703,-0.4665997880202606,-0.7483784908048043,-0.987625721139069,-0.5743122791036953,,-0.078094482421875,-0.5949859619140625,-1.556884765625
184,13.03,0.16709686982173072,0.20447183990627593,0.21347823488046902,-0.7221765514288703,0.4920938180639182,,-0.3249969482421875,-0.3976898193359375,-0.4152069091796875
185,13.08,0.29459465507786675,0.3567644607386503,-0.12862523964829664,0.3391630274585416,0.6134575701169293,,-0.3188629150390625,-0.3861541748046875,0.13922119140625
186,13.13,0.28567502485638385,0.5371627773029513,-0.432699734505236,0.4357814047695488,0.6581725834501339,,-0.37249755859375,-0.1404571533203125,-0.1046142578125
187,13.18,0.01236822643498059,0.4845342664126421,-0.3168750103270888,0.5244644077290239,0.6879968885443556,,-0.675628662109375,-0.13336181640625,0.0637359619140625
188,13.23,-0.6290038271727209,-0.08963884931137212,-0.2082652478694429,0.5241536570825515,0.7190949277100916,,-1.3480987548828125,-0.6814422607421875,0.155975341796875
189,13.28,-1.214362914934178,-0.6528112776308624,-0.5171010112095654,0.5213487765972219,0.6958696290111346,,-1.9102325439453125,-1.265655517578125,-0.1426849365234375
190,13.358,-1.4487556225369245,-0.5347236535064819,-0.7845029148867294,0.5207374407347587,0.5962883227755756,,-2.0450439453125,-1.220062255859375,-0.3664703369140625
191,13.408,-0.9658397375195347,-0.252601294490145,-1.3122633843673064,0.6026956247254175,0.4178119958789029,,-1.3836517333984375,-0.9775848388671876,-0.7646942138671875
192,13.458,0.024209728825958288,0.037802420246190405,0.021734689551443254,-0.4984417888522472,0.4854066282400208,,-0.4611968994140625,-0.7201385498046875,-0.4140472412109375
193,13.508,0.0629739474007493,0.5593779853255487,0.3139566701038233,-0.48943981491659,0.0977029513069993,,-0.03472900390625,-0.3084869384765625,-0.1731414794921875
194,13.558,0.3100678721428986,0.7688492906705167,0.36433113772002246,-0.4795156086407814,0.0742432871819611,,0.2358245849609375,-0.10626220703125,-0.113861083984375
195,13.607,0.45808400883027633,0.831098066066105,-0.08455091527307262,-0.4828395105226203,0.0889739014084013,,0.369110107421875,-0.0411376953125,-0.5654754638671875
196,13.657,0.8047573996485177,0.6426138856578943,0.1622714356651776,-0.5059804500247509,0.1662228537500802,,0.6385345458984375,-0.2079315185546875,-0.336669921875
197,13.707,0.769627938019343,0.043154238096884345,-0.020572061065867397,-0.5900532497922238,0.2163595054021555,,0.5532684326171875,-0.745086669921875,-0.596649169921875
198,13.757,1.0651613634115848,-0.012295703605981978,-0.045246283601757975,-0.6820743670297247,0.2476717393881473,,0.8174896240234375,-0.720794677734375,-0.7060699462890625
199,13.807,1.2225586387766085,0.368427996087779,0.7558370418517261,-0.8190037299196783,0.2608124229562961,,0.9617462158203124,-0.1855010986328125,-0.034820556640625
200,13.857,1.056020744376204,0.4798460161083183,1.4301118153711476,-0.9830018046387444,0.2625026779699541,,0.79351806640625,0.3026885986328125,0.4815826416015625
201,14.147,-1.7895606606360202,0.5657334516763749,1.2222255201961945,-0.9998291325371484,0.2596336753014798,,-2.0491943359375,0.547882080078125,0.256683349609375
202,14.197,-0.5823328063872013,-1.2287067520257844,-0.8315382029043308,-0.9999980680977332,0.4103734924409237,Body,-0.992706298828125,-1.230499267578125,-1.7434539794921875
203,14.247,0.2168111719297532,-1.665652446180679,0.14840066332085855,-0.998895524232749,0.5419912256406907,,-0.3251800537109375,-1.70513916015625,-0.6910552978515625
204,14.296,0.9317801236648585,-1.357120319112765,-0.4230367679675676,-0.9961275887018024,0.6155874967117335,,0.316192626953125,-1.4264068603515625,-1.2080535888671875
205,14.346,1.4656891997607975,-1.35332257537488,-0.277541265855054,-0.9910356728904556,0.6529145415576724,,0.812774658203125,-1.4545135498046875,-1.0281829833984375
206,14.396,1.5115714283156858,-1.2975676187970313,0.06988187376512511,-0.9730430382636844,0.6979727955031858,,0.8135986328125,-1.4627227783203125,-0.6269378662109375
207,14.446,-0.0032161570749937862,0.005249036950597752,0.00022651657681525827,-0.0431138047795615,-0.5220912791453063,,0.5188751220703125,-0.8468475341796875,-0.0365447998046875
208,14.496,0.01472835606824574,0.6040822692328238,0.12211715157387176,-0.0312428714705787,-0.5623743050645668,,0.5771026611328125,-0.2223968505859375,0.096282958984375
209,14.546,-0.018068208883097125,0.014003240514091964,0.015424724556265867,-0.7403994920932989,-0.6551989461877846,,0.6371307373046875,-0.4937896728515625,-0.543914794921875
210,14.595,0.08879206750405633,-0.9062757893375195,-0.48124297525781934,-0.7340807855042242,-0.6474445047615687,,0.736236572265625,-1.423797607421875,-1.0406951904296875
211,14.645,0.5797292686787113,-0.9553953797298436,-0.9281318318443675,-0.7264632998812157,-0.6730936072978512,,1.2528228759765625,-1.463623046875,-1.46539306640625
212,14.695,0.15941441287922042,-0.6678136176227886,-0.8233731265353327,-0.7196171962502048,-0.6964815832145296,,0.85589599609375,-1.16607666015625,-1.339752197265625
213,14.745,-0.025132805740426645,0.02453113430212428,0.021015523809273517,-0.6505921386507146,-0.6140762871857391,,0.5889434814453125,-0.5748443603515625,-0.492462158203125
214,14.795,0.0081182401429894,0.20988380718077082,0.3042594676743541,-0.8231499499347634,0.0219579618226769,,-0.0138397216796875,-0.3578033447265625,-0.5186920166015625
215,14.845,0.129136243987242,0.6531505236942201,1.1472017311717435,-0.6034603376127559,-0.100783189606508,,0.22991943359375,-0.1401824951171875,0.54681396484375
216,14.895,-0.1547664860340089,0.7432167480141041,1.1262048073158692,-0.4630990606552776,-0.2230648258777589,,0.06829833984375,-0.120758056640625,0.674774169921875
217,14.944,-0.059397630216722785,0.5623875782030092,1.5270806226788127,-0.3971625316116117,-0.3104047102948478,,0.251007080078125,-0.310028076171875,1.1495361328125
218,14.994,-0.004005392508692904,-0.02188903479523696,0.023496166253226147,0.7316874789484703,0.1237717071006821,,-0.127777099609375,-0.6982879638671875,0.7495574951171875
219,15.044,0.0084282687839793,0.0673560997913677,-0.074376524772793,0.7412230753908912,0.0836998752292918,,-0.0752716064453125,-0.6015472412109375,0.66424560546875
220,15.094,-0.01016611051691671,0.033681358602346334,-0.04757171632675439,0.8161480603672946,-0.1718177218450417,,0.161651611328125,-0.5355682373046875,0.756439208984375
221,15.144,0.0018409965314187988,-0.054724140324732606,0.060592748792221984,0.742131849179129,-0.0225425483904562,,0.024383544921875,-0.7248077392578125,0.8025360107421875
222,15.194,-0.2741165295845059,-0.8935861342781859,0.45889800057272223,0.745592156247903,0.0043716295951816,,-0.2784881591796875,-1.5599822998046875,1.2044830322265625
223,15.243,-0.3566539192433118,-0.7859270771389568,0.6379496689072036,0.7657411962657587,0.0095417594676257,,-0.3661956787109375,-1.429046630859375,1.403656005859375
224,15.293,-0.2712606848695524,-0.7665289123154698,0.6032372532484165,0.8174945266034828,0.0203347741148226,,-0.291595458984375,-1.34234619140625,1.420562744140625
225,15.343,-0.005377406161858195,0.06303311683865997,-0.03398449861282443,0.4745716370065872,-0.0748811903415457,,0.0695037841796875,-0.8147125244140625,0.4392547607421875
226,15.393,0.1322534191678827,0.8103474032574225,-1.1034887904511448,0.451780219585638,-0.0399420154024298,,0.1721954345703125,-0.0810699462890625,-0.652069091796875
227,15.443,-0.0745229580641726,1.8108213272843,-1.2025405591959435,0.470072589517984,0.0692606112717649,,-0.1437835693359375,0.9303131103515624,-0.7335968017578125
228,15.493,-0.11480985072711808,1.9786970015172396,-0.6406073613180763,0.4155473398598779,0.3066989383353819,,-0.4215087890625,1.1129608154296875,-0.245086669921875
229,15.543,0.631697988158463,1.4093218392551519,-1.1829030986026383,0.1046671308855097,0.546004628783463,,0.085693359375,0.576141357421875,-1.09521484375
230,15.612,2.0906184699699466,-0.07592760375946883,-1.9918807356726518,-0.206608923822904,0.6446651008293215,,1.445953369140625,-0.8238983154296875,-2.1498260498046875
231,15.931,-1.5371271155025126,0.7952460829653742,-0.7684689098805491,-0.3193370369671802,0.7084783532474874,Body,-2.24560546875,0.12646484375,-0.99383544921875
232,15.981,-0.1437334725175986,-0.7210312891553005,-0.23279545635846843,-0.2973960818628569,0.7790112784589638,,-0.9227447509765624,-1.319671630859375,-0.4192657470703125
233,16.031,1.1330032369882646,-1.2653925797160102,-1.2279528944286289,-0.2640035940060394,0.8337936422617019,,0.2992095947265625,-1.797882080078125,-1.3737030029296875
234,16.091,1.7208317693218738,-1.0598907593524407,-1.7992277746894456,-0.2694105723921328,0.8645237859234363,,0.8563079833984375,-1.5438995361328125,-1.93463134765625
235,16.141,1.5233474076568052,-1.0383197850766193,-0.8643846027098541,-0.0949415029242081,0.9077163041411802,,0.615631103515625,-1.4560089111328125,-0.9042205810546876
236,16.19,1.169777399746038,-0.8598089988524767,-0.5909979809635252,0.0510411332252729,0.9268727366601004,,0.2429046630859375,-1.2346954345703125,-0.57183837890625
237,16.24,-0.0007960769580487026,0.0031123661489523835,0.0020354544905705207,-0.5473333455239967,-0.2093226882861737,,0.208526611328125,-0.8152618408203125,-0.533172607421875
238,16.29,-0.052217988003948,0.3883033193523424,0.03273263125351586,-0.0839986377500191,-0.132814911832073,,0.080596923828125,-0.599334716796875,-0.0505218505859375
239,16.34,-0.23920136012229487,0.1990275725497106,0.14694095199426344,-0.5939560375016087,-0.6951034597316699,,0.455902099609375,-0.37933349609375,-0.280059814453125
240,16.39,0.13285588785165703,-0.1095751936046423,0.05555995604977221,-0.6275818531612792,-0.722368721523343,,0.855224609375,-0.64794921875,-0.37841796875
241,16.44,0.2200620540920729,-0.36879935393393604,-0.5113661728204706,-0.6632801986519529,-0.7336732974704271,,0.9537353515625,-0.8773193359375,-0.962066650390625
242,16.49,0.08280850720099853,-0.49187600368210826,-0.35974166278059355,-0.6636341966659812,-0.735688196900564,,0.8184967041015625,-0.9985504150390624,-0.809234619140625
243,16.539,0.02327115004086422,-0.4605233805001936,-0.32895996833831886,-0.6715753026657468,-0.7342666917560108,,0.757537841796875,-0.9635162353515624,-0.7848663330078125
244,16.589,-0.02270474562067204,-0.33418532588013605,-0.4087563702007706,-0.6406787488805681,-0.743560458511297,,0.720855712890625,-0.84759521484375,-0.837158203125
245,16.639,-0.03306274642047213,-0.06456240008114456,-0.5501821468906374,-0.5597440746939667,-0.7489288352876596,,0.7158660888671875,-0.613677978515625,-0.9210968017578124
246,16.689,-0.017232580635902883,0.03477118724484296,0.024882492549842428,-0.5819492740180298,-0.3738152222374654,,0.3565826416015625,-0.7194976806640625,-0.5148773193359375
247,16.739,-0.028361877624560702,0.2814927361841525,0.07184505793473775,-0.2473010743588173,-0.0971637575073732,,0.0688018798828125,-0.682861328125,-0.174285888671875
248,16.789,0.10074218772401838,0.2677331121053148,0.039387457234614814,-0.1455480319383807,0.3488806154583934,,-0.248138427734375,-0.659454345703125,-0.097015380859375
249,16.838,-0.4600456040757883,-0.12436154236237207,0.4306658995816554,-0.0833278463510833,0.3715126234632742,,-0.8315582275390625,-1.049560546875,0.353302001953125
250,16.888,-0.4840161491922857,-0.06925569249374697,0.3980546123301678,-0.0478875857003148,0.3550341437764643,,-0.83905029296875,-1.0030364990234375,0.3532867431640625
251,16.938,-0.334247079144816,0.10585140388971681,0.6218354722713004,-0.0563041822336248,0.3178372714411215,,-0.6520843505859375,-0.840789794921875,0.568450927734375
252,16.988,-0.6129241525148015,0.03525058602445641,0.7269665768009512,-0.0434419962756597,0.2913727224851985,,-0.904296875,-0.9204559326171876,0.6854095458984375
253,17.038,-0.9355967945582535,-0.42001266461413855,0.3868563298097435,-0.0538813816231777,0.3040272288792465,,-1.2396240234375,-1.3712921142578125,0.3355255126953125
254,17.088,-0.4114333144069545,-0.4563109398708134,-0.04605937619360165,-0.0785035465294776,0.319325352585233,,-0.7307586669921875,-1.401031494140625,-0.120452880859375
255,17.137,-0.059500602285996296,-0.29816441194881615,-0.15116178192729807,-0.099338373213376,0.3652430500577537,,-0.42474365234375,-1.2244720458984375,-0.2436370849609375
256,17.187,-0.03125461924651329,0.16613712197341235,0.21977751833149461,-0.797722404091974,-0.1127212940512008,,0.0814666748046875,-0.43304443359375,-0.5728607177734375
257,17.237,-0.0456338958086516,0.5041679136065279,0.29156704694371305,-0.8382633885918118,-0.0509286956133391,,0.0052947998046875,-0.0403900146484375,-0.5456085205078125
258,17.287,0.2721289354026146,0.6461274048924612,0.051179721740984396,-0.9008038774937124,-0.0164300245583229,,0.2885589599609375,0.2119598388671875,-0.8495025634765625
259,17.337,-0.0596260078458084,-0.05067555983629746,0.022832128738028867,-0.9492451773777656,0.0603538505526291,,-0.1199798583984375,-0.3646392822265625,-0.9246826171875
260,17.387,0.3632403203838629,-0.6210371146254727,-0.012053742123373623,-0.9929597133943848,0.1003619024151129,,0.26287841796875,-0.7388916015625,-1.0
261,17.437,1.1745621112882052,-1.04336317566155,-0.7159311779458716,-0.9875470240266648,0.1079422382413302,,1.066619873046875,-1.19976806640625,-1.6977081298828125
262,17.756,-2.1554900992120447,-0.18613686861319012,0.33501874191546566,-0.9724911434075476,0.1157501351629551,,-2.271240234375,-0.417510986328125,-0.6309356689453125
263,17.845,0.090672004441222,-1.0218574331110237,-1.3234996733851612,-0.9896035453513752,0.141605842331847,Body,-0.050933837890625,-1.1642303466796875,-2.303131103515625
264,17.895,0.1653397328259134,-0.9045019801834735,-0.036336649362495144,-0.9921676826288144,0.0907089955212259,,0.0746307373046875,-1.028900146484375,-1.0244140625
265,17.945,0.5727770770636605,-0.34308377454880545,0.028778366132012012,-0.9943705443519364,0.0395739520636605,,0.533203125,-0.4489593505859375,-0.964813232421875
266,17.995,0.6496248392705744,-0.2359981404821911,0.3269444778120282,-0.9979024625432114,-0.0297269673700507,,0.679351806640625,-0.3007049560546875,-0.6705169677734375
267,18.045,0.7067909631926865,-0.04233247831717568,0.543185914506251,-0.9946502438923296,-0.1074180211823135,,0.814208984375,-0.1450347900390625,-0.445709228515625
268,18.094,0.5956187414947192,-0.2307827907435297,-0.2519311517345336,-0.9969195631119008,-0.1480183434662183,,0.7436370849609375,-0.308349609375,-1.2378692626953125
269,18.144,0.3969543548959643,-0.36196641606560614,0.13738271909325517,-0.9970639383611496,-0.1978027251821607,,0.594757080078125,-0.4370269775390625,-0.8399810791015625
270,18.194,0.09950021632733441,-0.32832465476140915,0.22756872563297115,-0.9963897545787994,-0.2350487338679781,,0.3345489501953125,-0.4108428955078125,-0.74090576171875
271,18.244,-0.12919564725675442,0.16742320377283626,0.2400383350670907,-0.8201997474019237,-0.4038538503817544,,0.274658203125,-0.355926513671875,-0.5102996826171875
272,18.294,-0.1768286531340157,0.20997604408391807,0.3925457490897617,-0.8712246931760623,-0.4393103425871407,,0.262481689453125,-0.2310028076171875,-0.390106201171875
273,18.344,0.4325247780703422,0.3103747454518382,0.11053600876955072,-0.9130360042595486,-0.4183053000546578,,0.850830078125,-0.0601043701171875,-0.718780517578125
274,18.663,-3.089759956470488,0.27034946191265063,1.4433154640036308,-0.9533507039375112,-0.4579545365486129,,-2.631805419921875,0.0019989013671875,0.5958099365234375
275,18.762,-0.2872923484890413,-0.8868095086486166,-1.3875056088982074,-0.9588974770062204,-0.5113371482937288,Body,0.2240447998046875,-1.1306610107421875,-2.2115631103515625
276,18.812,-0.12844493544501734,-0.3598180574196268,-0.27774603066795345,-0.9532535096359026,-0.5802119032184548,,0.4517669677734375,-0.605926513671875,-1.05413818359375
277,18.862,0.05191633830264375,0.01291257302718496,-0.41080895142920426,-0.9366482232727652,-0.6415193306426688,,0.6934356689453125,-0.2557830810546875,-1.1293182373046875
278,18.912,-0.13372914189354046,-0.07023854551345177,-0.39004954928373803,-0.9167606348416554,-0.6723338782216655,,0.538604736328125,-0.3659210205078125,-1.0686798095703125
279,18.962,-0.17342816909757008,-0.012797891001431694,-0.22245131974557297,-0.9019923008111768,-0.7049986036678826,,0.5315704345703125,-0.319000244140625,-0.862152099609375
280,19.012,-0.2176889842484102,0.05153112186912584,-0.3380228620287161,-0.885063522722721,-0.7246317332718477,,0.5069427490234375,-0.2692413330078125,-0.9479522705078124
281,19.061,-0.2694406539136218,-0.027576972696296498,-0.4611159427704399,-0.8593119756498886,-0.7387247115308093,,0.4692840576171875,-0.3722991943359375,-1.0402984619140625
282,19.111,-0.2850810697314674,-0.14808834048166103,-0.3844435672039229,-0.8105219648156834,-0.7499400785205299,,0.4648590087890625,-0.5355377197265625,-0.9206085205078124
283,19.161,-0.0036013336198019164,0.007422397860332719,0.006844054962432233,-0.6778848353650693,-0.3359682769791769,,0.332366943359375,-0.6850128173828125,-0.6316375732421875
284,19.211,0.006538455375734609,0.07963349421889598,-0.31430558204283743,-0.7202847407005091,-0.3869857145461404,,0.393524169921875,-0.55999755859375,-0.9784698486328124
285,19.261,0.009731253124725614,-0.01924728334376835,-0.02442274422337254,-0.7854116049194041,-0.2986641326174619,,0.3083953857421875,-0.6099700927734375,-0.77398681640625
286,19.311,-0.051495677762773584,0.20029163699148023,-0.2980799299719775,-0.7370099308590288,-0.3107730215127736,,0.25927734375,-0.4421234130859375,-0.99859619140625
287,19.36,-0.14929871485348478,-0.11248920446124999,-0.6013204887896979,-0.584104009017585,-0.2833624355566098,,0.134063720703125,-0.890899658203125,-1.1614837646484375
288,19.41,-0.3230248426183829,-0.7165862004239931,-0.20912853329184367,-0.425773402939187,-0.2591057752355704,,-0.0639190673828125,-1.59051513671875,-0.620361328125
289,19.46,-0.2275334455965084,-0.5195959218674282,-0.5028682924564729,-0.3690135368348764,-0.2859288313386959,,0.0583953857421875,-1.41021728515625,-0.856475830078125
290,19.51,-0.014127692413216764,0.06937141621415166,0.03540645520400859,-0.4546015071656844,-0.1784801094054043,,0.1643524169921875,-0.8070220947265625,-0.411895751953125
291,19.56,0.07116028317618259,0.3424277686339139,0.06605873425787581,-0.189420420600441,0.1999292040746201,,-0.1287689208984375,-0.6196441650390625,-0.119537353515625
292,19.61,0.0964522864674773,0.521847599865099,-0.0344905750350908,0.0659493081658817,0.1813674476002898,,-0.0849151611328125,-0.4594268798828125,0.030364990234375
293,19.66,0.1501281962267887,0.5217019101812983,0.060297390287808575,-0.1148139261243612,0.2748535380236637,,-0.124725341796875,-0.4334259033203125,-0.0500946044921875
294,19.709,0.07545729511293059,0.4631299391351106,0.06052203967928335,-0.1295787242556962,0.1594874464801181,,-0.0840301513671875,-0.5157470703125,-0.0673980712890625
295,19.759,0.09389586260790289,0.4007647607070164,0.04616573550490814,-0.1144373278298616,0.2266931038188404,,-0.1327972412109375,-0.566802978515625,-0.0652923583984375
296,19.809,-0.0016198549737870271,-0.006056150287990003,0.00016660713361896923,0.0274999984263064,0.258298357916838,,-0.259918212890625,-0.9717559814453124,0.0267333984375
297,19.859,-0.612963087538501,-0.5103618073467138,0.06983006134896987,0.0298363871536067,0.2774025130474365,,-0.8903656005859375,-1.4706878662109375,0.0984954833984375
298,19.909,-0.9102113401207783,-0.7874427507842557,0.5421169508350699,0.0411666689726066,0.2617704714026592,,-1.1719818115234375,-1.7517547607421875,0.58184814453125
299,19.959,-0.8622324923955478,-0.5914104181667387,0.6660859682562033,0.045656126984027,0.2191426296747647,,-1.0813751220703125,-1.5660858154296875,0.71063232421875
300,20.008,-0.7457578746837132,-0.24426429803276328,0.35577737463382464,0.0369589486675633,0.1726381214100367,,-0.91839599609375,-1.22857666015625,0.392181396484375
301,20.058,-0.5947166337302017,-0.03731508490546287,-0.019675016720948395,0.0409350090508586,0.1165870772072983,,-0.7113037109375,-1.0296630859375,0.0209808349609375
302,20.108,0.0721973320296031,0.14758763286055343,0.08066519468585243,-0.4795981717942486,0.3944476982405406,,-0.3222503662109375,-0.65875244140625,-0.36004638671875
303,20.158,0.312535990095148,0.5127578460574094,-0.14754244039690534,-0.4626520990044934,0.3609216102123355,,-0.0483856201171875,-0.31402587890625,-0.579010009765625
304,20.208,0.5979679208554287,0.6281271256433382,-0.052569173359511556,-0.4694524790570965,0.3642185312069912,,0.2337493896484375,-0.194183349609375,-0.489776611328125
305,20.258,0.5969091899118166,0.5200544146526968,-0.25272140565788764,-0.5197012558996097,0.3865515238961917,,0.210357666015625,-0.26788330078125,-0.732025146484375
306,20.307,0.8207105076739426,0.6618894287094357,0.27550190541464825,-0.5902357604582991,0.4024823582598801,,0.4182281494140625,-0.0770721435546875,-0.2648162841796875
307,20.357,0.7800144102900025,0.560169684993265,0.11560897488091426,-0.6892132452333141,0.43679846790719,,0.3432159423828125,-0.09161376953125,-0.5043792724609375
308,20.407,0.9122087325505428,0.2929865555027882,0.23135074031915892,-0.8123298716792041,0.4855272139958553,,0.4266815185546875,-0.21685791015625,-0.4788055419921875
309,20.457,1.4131608285729058,0.1872534686720308,-0.43558697992327755,-0.9598658904525298,0.5223069467369682,,0.8908538818359375,-0.051910400390625,-1.254119873046875
310,20.766,-1.5681317506645431,-0.76171806515076,0.9234309114036984,-0.9693781763473373,0.6151110471870195,,-2.1832427978515625,-0.9553375244140624,0.1591339111328125
311,20.835,1.007346544586155,-0.9000151421417101,-1.7404391756553923,-0.8636101821390626,0.7392496207580299,Body,0.268096923828125,-1.239532470703125,-2.322021484375
312,20.884,0.8612879045869188,-1.1719819032320622,-0.47476423862120154,-0.8702024718704313,0.7403925188447313,,0.1208953857421875,-1.5031585693359375,-1.0596923828125
313,20.934,1.414452453215064,-0.5804838313456158,-0.3644181444234429,-0.8174509934786622,0.7383965450119389,,0.676055908203125,-0.9689178466796876,-0.915679931640625
314,20.984,-0.07407557221054806,0.11587910686174796,0.03228960945285436,-0.2684230016656087,-0.5243471786558606,,0.4502716064453125,-0.704376220703125,-0.1962738037109375
315,21.034,-0.14041759849584223,0.16844004001772805,0.15821510070964107,-0.6846376420536723,-0.5192780721286547,,0.3788604736328125,-0.4544677734375,-0.4268798828125
316,21.084,-0.18604269941203744,0.3819334623577799,-0.05164364835162527,-0.7268121245663672,-0.5089949699198499,,0.3229522705078125,-0.2092742919921875,-0.6772613525390625
317,21.134,-0.28971513911094604,0.09161609377795155,-0.3196089986018814,-0.7974634498857748,-0.5219691674312585,,0.2322540283203125,-0.42303466796875,-0.99981689453125
318,21.183,-0.06382772608440757,-0.05986499822329422,-0.2115456374312179,-0.8991073198447607,-0.5337068764750326,,0.469879150390625,-0.4300384521484375,-0.971893310546875
319,21.233,0.5381076635393325,-0.13147640659871587,-0.25320393174361766,-0.9667939254929538,-0.54534265384348,,1.0834503173828125,-0.3456878662109375,-1.0635833740234375
320,21.283,1.4387640534347192,-0.301597540945663,0.0018040362784509378,-0.9973326888444182,-0.4579034270340307,,1.89666748046875,-0.366485595703125,-0.88482666015625
321,21.564,-2.47817993944273,0.813918952926029,1.4564178120604176,-0.9999615813672011,-0.463623054677105,,-2.014556884765625,0.80615234375,0.5704193115234375
322,21.613,-0.8742718560785795,-0.5238215746993417,-0.2859549667289183,-0.9993244968684472,-0.3686261041254545,,-0.505645751953125,-0.5579833984375,-1.21490478515625
323,21.673,-0.6294886759579882,-1.3226693540267724,-1.070402533711825,-0.9947932602025528,-0.2760188273251757,Body,-0.3534698486328125,-1.420623779296875,-2.02655029296875
324,21.723,0.04301581965168011,-0.6943836607614027,-0.14180682401634848,-0.9940979285892128,-0.2947679938248824,,0.3377838134765625,-0.7980499267578125,-1.09173583984375
325,21.773,0.1949038465264445,-0.16346205438055533,-0.7930731253485945,-0.9920038895598652,-0.370541099762618,,0.5654449462890625,-0.2806854248046875,-1.7144622802734375
326,21.823,0.22015271912088102,-0.31832900265147135,-0.06547395390002753,-0.99651941047625,-0.4285746978713065,,0.6487274169921875,-0.393646240234375,-0.9658355712890624
327,21.873,0.04392335895244509,-0.182104604356781,-0.02759397470817282,-0.998896522258998,-0.4902868461256799,,0.534210205078125,-0.2230377197265625,-0.898193359375
328,21.922,-0.3289592726685857,-0.36595881436641553,-0.04657230558092196,-0.9993765920531182,-0.5240886671998357,,0.19512939453125,-0.396026611328125,-0.897705078125
329,21.972,-0.229424125435572,-0.5231407516358773,-0.19050465083284707,-0.9994903069905776,-0.564140922310572,,0.334716796875,-0.54949951171875,-1.0157623291015625
330,22.022,0.13790049043532915,-0.6147110242249654,-0.4187004835196847,-0.9976870894300934,-0.5858238747990459,,0.723724365234375,-0.6697998046875,-1.227264404296875
331,22.072,1.1031514650714147,-0.7271448368835765,-0.5826120705382634,-0.988132502541024,-0.5922983640301479,,1.6954498291015625,-0.8509063720703125,-1.3787689208984375
332,22.371,-3.0478504050976256,0.029959349807262003,0.6320879385028969,-0.9895052597939152,-0.5930927146679381,,-2.4547576904296875,-0.0863800048828125,-0.1645965576171875
333,22.431,-1.3858730979607579,-1.1130719553112394,-1.3423754874196066,-0.9840983520672716,-0.5809719749138827,,-0.804901123046875,-1.2576446533203125,-2.1433563232421875
334,22.481,-0.3371044714834057,-0.45646742429128084,-0.9655109051681637,-0.9790723447773224,-0.6238323767568432,Body,0.2867279052734375,-0.6155242919921875,-1.730712890625
335,22.53,-0.0938271079669536,-0.23387132871110844,-0.5750239637395571,-0.9919886813299028,-0.6497810874591411,,0.5559539794921875,-0.32989501953125,-1.3290557861328125
336,22.58,-0.39468958729439196,-0.388217143387706,-0.1267705950735607,-0.989515952529167,-0.710882214247517,,0.316192626953125,-0.4897918701171875,-0.8227081298828125
337,22.63,-0.31573763196114857,0.3077029867497886,-0.6640770840305716,-0.9616022020563436,-0.7821225196564611,,0.4663848876953125,0.136688232421875,-1.263275146484375
338,22.68,-0.0258359174227758,0.0926795210816071,-1.1224884719771495,-0.9692115232850126,-0.8134030560946508,,0.787567138671875,-0.0505523681640625,-1.686279296875
339,22.73,0.17652697512699134,-0.2752489896678435,-0.6256934064621217,-0.9615614625191632,-0.8321552758495712,,1.0086822509765625,-0.427520751953125,-1.1589202880859375
340,22.78,0.31276140955768617,-0.4517613899940661,-0.6857171182234659,-0.951475375691489,-0.8359965250126263,,1.1487579345703125,-0.6206207275390625,-1.20782470703125
341,22.83,1.0383792384537198,-0.494896315211374,-0.6440750666194321,-0.9363921976853224,-0.7880062595931551,,1.826385498046875,-0.710968017578125,-1.2205810546875
342,22.997,-8.252903730307827,1.6648507254793161,-2.703242987305353,-0.9986171935356178,-0.6683852976906397,,-7.5845184326171875,1.6257476806640625,-3.4460296630859375
343,23.099,-3.0007369423458607,-0.5970245007884483,1.1580593773723529,-0.9989841608586328,-0.6258284950802359,,-2.374908447265625,-0.632171630859375,0.3788909912109375
344,23.149,-1.6783145582697583,-1.4208407993928043,-0.776685575018166,-0.997108957649104,-0.5883182203791332,,-1.089996337890625,-1.4822845458984375,-1.582977294921875
345,23.208,-0.6313442090489422,-0.6832364429195573,-1.3356736068943977,-0.9972140543698106,-0.6124538281895672,Body,-0.018890380859375,-0.7422027587890625,-2.1239776611328125
346,23.258,-0.2858126653199886,-0.32337289164584027,-0.03212589914991937,-0.9999998875001208,-0.6570590032106136,,0.371246337890625,-0.32373046875,-0.7859649658203125
347,23.308,-0.2940266746346133,-0.11370339396759652,0.08278914249667868,-0.9999079255449994,-0.6974232810799258,,0.4033966064453125,-0.1234283447265625,-0.6338043212890625
348,23.358,-0.32559681440347066,-0.1039312023936945,-0.04145506858207548,-0.9994087371087288,-0.7259264042472207,,0.40032958984375,-0.1275787353515625,-0.72882080078125
349,23.408,-0.328923464650444,-0.15862429947772191,-0.5673291079694217,-0.999582505939399,-0.746281863087944,,0.4173583984375,-0.1778564453125,-1.2326812744140625
350,23.458,-0.09176343665383546,-0.04352739984646621,-0.41511544792907873,-0.9989730917677766,-0.7810029386069605,,0.689239501953125,-0.0718231201171875,-1.03900146484375
351,23.507,0.31627008778093646,-0.31395850792648616,0.0699284617168836,-0.9961692555913696,-0.787718559680001,,1.1039886474609375,-0.367828369140625,-0.5437469482421875
352,23.557,0.6108125307140175,-0.6841567130804308,-0.9532085900873722,-0.9690753867399772,-0.79438461284067,,1.4051971435546875,-0.83404541015625,-1.541839599609375
353,23.875,-2.7139619629639498,-0.24271014938403676,0.22385363882533105,-0.9532612966273812,-0.7395814697998875,,-1.9743804931640625,-0.446075439453125,-0.417755126953125
354,23.925,-1.6862564127771997,-1.492538443347008,-1.4140382876087192,-0.9218894822825284,-0.7377700846521998,,-0.948486328125,-1.75408935546875,-2.0363616943359375
355,23.975,-0.34960083267386843,-0.2742877859846718,-1.695398958520649,-0.8829016910299345,-0.7359533717363684,Body,0.3863525390625,-0.592193603515625,-2.29315185546875
356,24.025,-0.10711403909017359,-0.18514682764544732,-0.35234774578810024,-0.9211948039670066,-0.7245151621370486,,0.617401123046875,-0.453338623046875,-0.9872894287109376
357,24.074,-0.5471328872657225,-0.43290205765312,-0.20845313954884925,-0.952174035872438,-0.7128738540625975,,0.165740966796875,-0.647186279296875,-0.8762054443359375
358,24.124,-0.38809713826380565,-0.2567731262175952,-0.2870127457994629,-0.9483777310277912,-0.7139485786934932,,0.3258514404296875,-0.4788360595703125,-0.9510650634765624
359,24.174,-0.2656587455436459,0.06319470828640228,-0.4913698775359542,-0.9363640167344096,-0.7375367973014584,,0.4718780517578125,-0.173858642578125,-1.1237030029296875
360,24.224,-0.21572489721314092,-0.018187910816464536,-0.3516343185955526,-0.9285640065865274,-0.7446097849084534,,0.5288848876953125,-0.2659454345703125,-0.9714508056640624
361,24.274,-0.025565268755810444,-0.35038422824728277,-0.6839793797291088,-0.9006908511347808,-0.7644416115292479,,0.7388763427734375,-0.6304779052734375,-1.2646484375
362,24.324,0.46796658611015507,-0.18795172301848478,-0.8843148812693802,-0.8614884653525763,-0.7744803133039074,,1.2424468994140625,-0.5091705322265625,-1.429290771484375
363,24.373,1.173641765242754,-0.26248058633871324,-0.6334901172915199,-0.7959853219273705,-0.7322878001869334,,1.9059295654296875,-0.6746978759765625,-1.1755523681640625
364,24.664,-2.754004246618785,-0.1334925155235715,0.889625563622064,-0.7960138785738596,-0.7343204087281598,,-2.019683837890625,-0.5443572998046875,0.3492889404296875
365,24.714,-0.9970393988298205,-0.5724056677152329,-1.763268394954079,-0.7312663103178609,-0.7264705511735705,,-0.27056884765625,-1.0411376953125,-2.2657928466796875
366,24.772,-0.4211929196764237,-0.21674749174779623,-1.5434278797486964,-0.7598859349327841,-0.7717025632311112,Body,0.3505096435546875,-0.6301727294921875,-2.026702880859375
367,24.822,-0.2112019220760648,0.07550770511784866,-0.6443036067181624,-0.7851448589574416,-0.8140919367245023,,0.6028900146484375,-0.284149169921875,-1.1002655029296875
368,24.872,-0.12497981966385774,0.260140610340586,-0.5455944180072332,-0.800921638909022,-0.8411663431013577,,0.7161865234375,-0.06365966796875,-0.9787139892578124
369,24.922,-0.32361743498424356,0.2811642029738122,-0.4768330156333686,-0.8161610638208118,-0.8662810092029936,,0.54266357421875,-0.0074920654296875,-0.884552001953125
370,24.972,-0.536520376852892,0.143142562892276,-0.1915977211187544,-0.8189353578304437,-0.871572867087267,,0.335052490234375,-0.138214111328125,-0.5930938720703125
371,25.021,-0.5935535904968885,0.2450586297966299,-0.8144700588081757,-0.842427593761199,-0.8584156510437635,,0.264862060546875,-0.0313262939453125,-1.2465972900390625
372,25.071,-0.5264586071280264,-0.018903858302396825,-0.35258469730229525,-0.8651673187895919,-0.8358000377920889,,0.3093414306640625,-0.2942352294921875,-0.8275909423828125
373,25.121,-0.2936636006741312,-0.5563567960168573,-0.7588429714276127,-0.8862542761724215,-0.8116689717678812,,0.51800537109375,-0.8269195556640625,-1.276519775390625
374,25.171,0.6664889744553174,-0.4451352195789728,-1.1363528417988198,-0.8095849284742526,-0.8111874171462451,,1.4776763916015625,-0.7884063720703125,-1.6097869873046875
375,25.491,-2.771710957309754,0.5903518146574911,-0.13084819634184702,-0.7808461301369136,-0.7790046584816287,,-1.992706298828125,0.198638916015625,-0.620452880859375
376,25.541,-1.5610275745697115,-0.5134772387948563,-1.3167684671970392,-0.7386179869404107,-0.7547989368743989,Body,-0.8062286376953125,-0.9556732177734376,-1.80126953125
377,25.619,-0.37635694859949875,0.11403466997941764,-1.6374492936386638,-0.7401610462609168,-0.7999256741854363,,0.4235687255859375,-0.28948974609375,-2.0816192626953125
378,25.669,-0.37085012667995987,-0.22251499219279058,-1.3553598489203464,-0.7417002177857946,-0.8409276413283974,,0.4700775146484375,-0.585479736328125,-1.7567291259765625
379,25.719,-0.10699744725339233,-0.1026045118500547,-1.4560468359827534,-0.77981958278265,-0.8829831650268298,,0.7759857177734375,-0.396453857421875,-1.8220977783203125
380,25.769,-0.18124628164587364,-0.021362820168339486,-0.8803221206340475,-0.8266883967654531,-0.9056725511771236,,0.72442626953125,-0.259918212890625,-1.2308197021484375
381,25.819,-0.16416036823097457,0.21958982482307485,0.11833785427763432,-0.8653662935986879,-0.9125429365903496,,0.748382568359375,0.0146331787109375,-0.2355804443359375
382,25.869,-0.4527168677171667,0.14379840810541095,0.205219880793982,-0.847300458448934,-0.9170265600999792,,0.4643096923828125,-0.068023681640625,-0.1327056884765625
383,25.919,0.018203000211044817,0.06252248363525131,-0.5526943204489808,-0.7681743941402361,-0.9078681667811428,,0.9260711669921876,-0.205902099609375,-0.874755859375
384,26.267,-3.458121690419188,0.4745172301111694,1.367145784425897,-0.7165101853768812,-0.9082101913957504,,-2.5499114990234375,0.1825714111328125,1.0672760009765625
385,26.317,-1.6108068595377543,-0.5822586413054853,-1.82818508144203,-0.6605780090978509,-0.9085516105143168,,-0.7022552490234375,-0.895904541015625,-2.104156494140625
386,26.378,-0.5802477398504083,-0.2863392945461297,-1.8883576458368745,-0.6849498355220431,-0.9104631939519708,Body,0.3302154541015625,-0.587677001953125,-2.1716461181640625
387,26.428,-0.4385545184472439,-0.21556614605684615,-0.8345905438580505,-0.735561881736277,-0.9107377459863064,,0.4721832275390625,-0.4953460693359375,-1.13836669921875
388,26.478,-0.5419586112614039,-0.21046364368295944,-0.6711431592399947,-0.7413609400519159,-0.9124572684879664,,0.3704986572265625,-0.4850616455078125,-0.9744873046875
389,26.528,-0.5147285417846365,-0.10477935954049078,-0.7682480319308506,-0.7336131705576493,-0.908786769323699,,0.3940582275390625,-0.388336181640625,-1.0743560791015625
390,26.578,-0.5776968483184114,-0.21299153814695804,-0.8010688831199066,-0.6740595819047223,-0.9240103248809114,,0.3463134765625,-0.4954376220703125,-1.058807373046875
391,26.628,-0.40527127509655736,0.056553744706373366,-1.0512836296415904,-0.5942041433648687,-0.9496743512684324,,0.544403076171875,-0.1953887939453125,-1.2374114990234375
392,26.677,-0.3680373746653033,-0.09411246330203688,-0.6906151300804967,-0.5497508209695809,-0.9653731900949908,,0.5973358154296875,-0.3120269775390625,-0.8340301513671875
393,26.727,-0.17726161242969762,-0.253328187638702,-0.6471262436360363,-0.4654114198617959,-0.9780123448515726,,0.800750732421875,-0.4379119873046875,-0.7441864013671875
394,26.777,0.6796491312615703,-0.03708111412714529,-1.6813755666165608,-0.3389832135034282,-0.9810411763556172,,1.6606903076171875,-0.2194061279296875,-1.7470703125
395,26.999,-7.2471847568834535,3.3753020761876527,-6.071519671746479,-0.5687287233762206,-0.9442520176256408,,-6.3029327392578125,3.1045074462890625,-6.258758544921875
396,27.096,-3.683714276881528,0.5688067098142948,1.5974596581863456,-0.6054087918262708,-0.958860761256528,,-2.724853515625,0.342864990234375,1.42559814453125
397,27.146,-1.30423972107282,-0.4932509496405473,-1.3615208913829138,-0.5530071753288357,-0.95817038513532,,-0.3460693359375,-0.7317047119140625,-1.5197906494140625
398,27.226,-0.4686866370421977,-0.14001034846583035,-1.911959799546141,-0.6173901574496079,-0.9596992102843852,Body,0.4910125732421875,-0.361083984375,-2.0854644775390625
399,27.276,-0.6453197282633371,-0.49594682692392317,-0.7232586237084854,-0.7014617195525383,-0.9589031022867746,,0.3135833740234375,-0.6981658935546875,-0.9222869873046876
400,27.325,-0.7306335806580325,-0.4186248537246344,-0.6918127519465755,-0.6816104799229201,-0.959713780853345,,0.2290802001953125,-0.6242218017578125,-0.883331298828125
401,27.375,-0.48373831119078936,-0.10381711251311324,-1.0667658527034047,-0.6376230486491136,-0.9718364557220394,,0.48809814453125,-0.2853546142578125,-1.2170257568359375
402,27.425,-0.5789621593754368,-0.02645291022024085,-1.3339878210199998,-0.6121657248410752,-0.9770334484379368,,0.3980712890625,-0.1949462890625,-1.4644317626953125
403,27.475,-0.4715923079616282,-0.12761615990898723,-0.6738524860869776,-0.5816012489735205,-0.9807780989772532,,0.509185791015625,-0.286346435546875,-0.7873382568359375
404,27.525,-0.519977363038772,-0.17066012623871998,-0.6303948107588032,-0.5277050626028873,-0.985706122804397,,0.465728759765625,-0.3137664794921875,-0.71929931640625
405,27.575,-0.22625527215811392,-0.2516771610656188,-0.9358113281853707,-0.4262845465106843,-0.9877146227440514,,0.7614593505859375,-0.393035888671875,-1.0024261474609375
406,27.624,0.4225450491200351,-0.4468610625179239,-1.7831196267524059,-0.3659825038579861,-0.9792951608409024,,1.4018402099609375,-0.63525390625,-1.857208251953125
407,27.674,0.784154110386829,-0.6858317018831506,-1.712554543259659,-0.2927733833030518,-0.955500430628796,,1.739654541015625,-0.9678955078125,-1.798919677734375
408,27.943,-3.1085383280917434,1.402828151135082,1.3791303492490148,-0.1795375700883194,-0.9662806376620556,,-2.1422576904296875,1.1495208740234375,1.3329010009765625
409,28.053,-0.8811954305926131,-0.5784530999740348,-2.1165450709338822,-0.1359471976117684,-0.9651035116473006,Body,0.0839080810546875,-0.837890625,-2.1521453857421875
410,28.103,-0.4464532062877943,-0.1289674786166458,-0.9784081488453746,-0.1486432727233638,-0.9768029377331068,,0.5303497314453125,-0.340728759765625,-1.0102386474609375
411,28.153,-0.549783498026175,-0.11149091485602197,-0.9042752870544142,-0.1689823288396495,-0.98505571482305,,0.435272216796875,-0.28125,-0.933380126953125
412,28.203,-0.547355249906104,-0.12037939535376449,-0.9149309938735285,-0.1897397315168261,-0.991508081937354,,0.44415283203125,-0.2480621337890625,-0.939605712890625
413,28.252,-0.7541199889533913,-0.11698190040461079,-1.4705234419056379,-0.1247635037642272,-0.9959870543830788,,0.2418670654296875,-0.205780029296875,-1.481689453125
414,28.302,-0.5548980722612018,-0.21094132904804402,-1.0053073229402454,-0.0987568432441079,-0.9992645273393268,,0.444366455078125,-0.2490997314453125,-1.00909423828125
415,28.352,-0.5746075258960714,-0.19082727160948756,-0.948809075038874,-0.0568109686069243,-0.9999920473804464,,0.425384521484375,-0.1948089599609375,-0.94903564453125
416,28.402,-0.30761492905328036,-0.24743134711056752,-0.822306254445441,0.0022042232898191,-0.9994789427251554,,0.691864013671875,-0.2797088623046875,-0.822235107421875
417,28.452,-0.12912746385063512,-0.49995713255942614,-1.1261888504587574,0.0720185477122266,-0.9997481913896976,,0.8706207275390625,-0.5223388671875,-1.12457275390625
418,28.502,0.5700384776503374,-0.406058629823129,-1.8666735665807226,0.0990307405069239,-0.9999993641465376,,1.570037841796875,-0.4071807861328125,-1.8665618896484375
419,28.761,-3.150771313321657,-0.056796569256236586,0.8008502732055051,0.1266533722549108,-0.9984733396888444,,-2.1522979736328125,-0.1115875244140625,0.8078460693359375
420,28.811,-1.7083572515237782,-1.0100323206122106,-0.617797209253797,0.1977794900962661,-0.9957412847269032,,-0.712615966796875,-1.10040283203125,-0.5995635986328125
421,28.9,-0.9318740855377772,-0.22571080686442196,-2.2085872972137848,0.2626920127389154,-0.9991348277252772,Body,0.0672607421875,-0.265838623046875,-2.197662353515625
422,28.95,-0.6785831184591785,-0.33966456019653124,-1.1287711175672401,0.2503288998606611,-0.999917957326366,,0.3213348388671875,-0.3520660400390625,-1.1255645751953125
423,29.0,-0.7956212260569498,-0.4041661496995335,-1.140070699079402,0.2454463339382086,-0.9999058940256998,,0.20428466796875,-0.4174652099609375,-1.1367034912109375
424,29.05,-0.01931501236412922,0.04602576911433787,0.07392755602734802,-0.8489205882748578,-0.2165348609969417,,0.1972198486328125,-0.4699554443359375,-0.754852294921875
425,29.1,0.1772015780092543,0.2707666210941239,-0.32725826197241903,-0.8657503326795168,-0.2772967130063707,,0.454498291015625,-0.2100830078125,-1.1590576171875
426,29.15,0.2681813599216724,0.2727577459319596,-0.37465605597108165,-0.8809241823993584,-0.3262400267970776,,0.59442138671875,-0.1746063232421875,-1.2073822021484375
427,29.199,0.2879083428463924,0.1373092934970941,-0.1932584468452666,-0.8760322014371774,-0.3669073309817326,,0.654815673828125,-0.311309814453125,-1.0081939697265625
428,29.249,0.4484213035885282,-0.11510332397479195,-0.4604367457534063,-0.8938675525188841,-0.3937265235599093,,0.8421478271484375,-0.5272216796875,-1.2821044921875
429,29.299,1.1480219568976489,-0.34735116381012987,-0.5874676239152968,-0.9289706368767178,-0.3972661290398511,,1.5452880859375,-0.687042236328125,-1.4399871826171875
430,29.607,-2.4949086545145445,-0.25883005275260773,2.041942851347126,-0.9755415952277632,-0.3244832394754821,,-2.1704254150390625,-0.4667510986328125,1.1191864013671875
431,29.718,0.3625021180349364,-0.8042332564095999,-1.2761174359153307,-0.9580569793458188,-0.2959604063791261,Body,0.6584625244140625,-1.077972412109375,-2.191253662109375
432,29.768,0.2915520673107582,-1.1949419489079247,-0.8104823578359022,-0.8716336045891605,-0.2627539629626793,,0.5543060302734375,-1.667877197265625,-1.6514892578125
433,29.817,0.2665370671185806,-0.866380659446302,-0.035830801157133885,-0.6027808434677248,-0.1997410090532944,,0.466278076171875,-1.6482086181640625,-0.62646484375
434,29.867,-0.07830304560898232,-1.4217964443100215,0.32876835787828446,-0.3506818885900779,-0.2842661803746073,,0.205963134765625,-2.3196563720703125,-0.0074462890625
435,29.917,0.5740350371370735,0.0997573513488158,-0.2044708532898011,-0.23766660953657,-0.3873449677457389,,0.9613800048828124,-0.7957611083984375,-0.423583984375
436,29.967,0.3552187297892898,0.8237551093368665,-0.14910887917407276,0.0321331163327169,-0.4662229206013352,,0.821441650390625,-0.060455322265625,-0.1206817626953125
437,30.017,0.2958688443108745,1.3186111657717392,0.0024578395475709502,0.1904304599997114,-0.4732656771735005,,0.769134521484375,0.4538116455078125,0.1702117919921875
438,30.067,0.016940114707756693,1.3100947470766844,-0.5122806053666487,0.2908790757783789,-0.4134035132219308,,0.4303436279296875,0.4389190673828125,-0.2474212646484375
439,30.117,-0.056891157509967705,1.1201130573746805,0.07490878823866409,0.3958031877437057,-0.3092562698146552,,0.2523651123046875,0.246795654296875,0.4513092041015625
440,30.166,-0.05909079598261066,1.137864283090932,0.07887962307374885,0.3305917275711222,-0.1614162354357357,,0.102325439453125,0.2064666748046875,0.4051361083984375
441,30.216,0.040730582786327074,0.0716808235337767,0.005382829811196019,-0.0748835753573301,0.4929858318097646,,-0.4522552490234375,-0.7959136962890625,-0.0597686767578125
442,30.266,0.07013016387710053,0.21514482156275772,-0.10425602515294025,0.4360817584776477,0.281479651181788,,-0.2113494873046875,-0.64837646484375,0.3141937255859375
443,30.316,1.091426881553811,1.3855565154646876,-0.18414097457711784,-0.0966143022175759,0.4450340592881861,,0.646392822265625,0.494232177734375,-0.270660400390625
444,30.366,1.923140156180521,1.215580043906609,-0.6726700891998054,-0.358987749276855,0.6639391063758334,,1.2592010498046875,0.51763916015625,-0.9411163330078124
445,30.685,-1.9915446418901332,0.817270659413165,1.4279843715883156,-0.3029304777342636,0.7370930534223669,,-2.7286376953125,0.1732330322265625,1.2232666015625
446,30.884,1.078117966252556,-1.5157822571490862,-0.037040453226076284,-0.0023154873138386,0.7976766820728683,Body,0.2804412841796875,-2.118865966796875,-0.0384368896484375
447,30.934,1.2256139874997758,-0.98522852978723,0.35246257698129324,0.2918064818220841,0.8154272199216509,,0.410186767578125,-1.5388946533203125,0.5213775634765625
448,30.984,1.5442356434924291,-0.46124580121705505,0.46010905607449026,0.4863220826384094,0.8097538319689918,,0.7344818115234375,-0.9739532470703124,0.7454681396484375
449,31.034,-0.14124617656929706,0.15993179026360682,-0.027338374377731428,0.1684937679471358,-0.656596518366172,,0.515350341796875,-0.583526611328125,0.0997467041015625
450,31.083,-0.27294160596157147,0.1711751429243159,-0.06715568596427327,0.3652203474374811,-0.829353349125634,,0.5564117431640625,-0.3489532470703125,0.13690185546875
451,31.133,-0.18534297898404617,0.27793731061464555,-0.09524153421253914,0.4359302049795032,-0.8298131938277962,,0.64447021484375,-0.2242889404296875,0.1480255126953125
452,31.183,-0.052865472006422665,0.033605795223325075,0.004194974711698857,-0.1238675701164484,-0.8420347835298602,,0.7891693115234375,-0.5016632080078125,-0.0626220703125
453,31.233,0.21563705407779965,-0.17991861811873566,0.01910807206730425,-0.0824946178581878,-0.8429872135003253,,1.058624267578125,-0.7160186767578125,-0.0252685546875
454,31.283,0.46213290670860907,-0.267537678361846,0.29533399214599426,-0.1353573834827309,-0.8740334751273284,,1.3361663818359375,-0.748931884765625,0.2295684814453125
455,31.333,0.0095569922815536,-0.18525145729996984,0.22854349103035118,-0.1986547940448483,-0.9182079002965714,,0.927764892578125,-0.573455810546875,0.1498565673828125
456,31.383,-0.08774837547611425,0.10892837941898803,-0.04752012123396743,0.3998577760586908,-0.5939892202026767,,0.5062408447265625,-0.6284332275390625,0.2741546630859375
457,31.432,-0.1652086778895503,0.18911540116371328,-0.05278545509003327,0.2688417962851449,-0.6438311144129878,,0.4786224365234375,-0.547882080078125,0.152923583984375
458,31.482,-0.033704560043099505,0.27859126525531963,0.05809271141816627,-0.2041322843938552,-0.117612641097787,,0.0839080810546875,-0.6935577392578125,-0.144622802734375
459,31.532,0.07487655049901229,-0.0427374868214111,0.7387543808130451,-0.3001873839910187,-0.1737043821181752,,0.2485809326171875,-0.98211669921875,0.4431304931640625
460,31.582,-0.6274780394511703,-0.6965965334258959,1.3946713194265359,-0.3692545135463417,-0.1901001097636703,,-0.4373779296875,-1.608978271484375,1.0321502685546875
461,31.632,-0.4683111345013651,-0.5595254603682336,2.240177433518646,-0.4047175441057506,-0.2464788591107401,,-0.221832275390625,-1.4457550048828125,1.8479461669921875
462,31.682,-0.1729221499381472,-0.15450061448118546,2.001009723356045,-0.4291845163410922,-0.2983341372428347,,0.1254119873046875,-1.0165863037109375,1.59136962890625
463,31.731,-0.23829482957385179,-0.21437624451946913,1.2364001608382196,-0.3750794765687629,-0.3051588432457268,,0.066864013671875,-1.0971527099609375,0.87921142578125
464,31.781,-0.3467945811264449,-0.19816824448658665,0.8108478081762254,-0.2420369306881435,-0.2641529795639449,,-0.0826416015625,-1.13397216796875,0.5774078369140625
465,31.831,-0.0036117568317354937,0.03987663922451168,-0.004433513174193132,0.1104998576967303,-0.089656068355173,,0.0860443115234375,-0.9499969482421876,0.105621337890625
466,31.881,-0.08663564736147672,0.33576412926842425,0.03395092566124547,-0.100602416248783,-0.2486534696271017,,0.162017822265625,-0.6279144287109375,-0.0634918212890625
467,31.931,0.35140581669103765,0.7731866628185707,0.11300319044546445,0.013738214628956,-0.1701243346761499,,0.5215301513671875,-0.2121429443359375,0.1265411376953125
468,31.981,0.4311323961104517,0.948506746494936,0.013861213490904523,0.0425484706219859,-0.0249070326004858,,0.4560394287109375,-0.0502777099609375,0.056396484375
469,32.031,0.483685192924886,0.9733585726418621,0.05712282351835863,0.022647460217908,0.1628996704639485,,0.3207855224609375,-0.013031005859375,0.0794677734375
470,32.08,0.6020260326079157,1.053128520899704,-0.0880958692071663,-0.104937060241734,0.3723812572172906,,0.229644775390625,0.1301727294921875,-0.18548583984375
471,32.13,0.7444193823262808,0.68992226630048,-0.4143828886606628,-0.3132425513470822,0.5673411352559683,,0.1770782470703125,-0.0921173095703125,-0.672332763671875
472,32.18,0.9387715166245999,0.47308323623452586,-1.1710874297417888,-0.6247997668387717,0.7185719316636624,,0.2201995849609375,-0.069915771484375,-1.6056060791015625
473,32.23,0.9903449776431432,-0.48204377550037597,-0.5132069586559782,-0.8323621689088931,0.8326759102603307,,0.1576690673828125,-0.7889556884765625,-0.9741363525390624
474,32.569,-1.1495263567920488,0.09625635233304103,1.284684642542055,-0.8330433077216471,0.8651678570751387,,-2.0146942138671875,-0.1811676025390625,0.8669281005859375
475,32.647,1.3051341286109017,-0.9754575128071297,-1.8447224771809128,-0.8937289616492792,0.8890879860327766,Body,0.416046142578125,-1.1808013916015625,-2.253814697265625
476,32.697,1.4620880559316936,-0.9793068088617762,-0.7822074910220198,-0.8951509883775723,0.881994672142631,,0.5800933837890625,-1.1893768310546875,-1.2040557861328125
477,32.747,1.547326762562966,-0.6733362105502773,-0.5046432910136194,-0.9068023898684876,0.8696991990864035,,0.6776275634765625,-0.88140869140625,-0.9522247314453124
478,32.797,1.3488796229436877,-0.4891991929938464,-0.3074587094301571,-0.8882708358432632,0.8528316493108752,,0.4960479736328125,-0.7290496826171875,-0.77130126953125
479,32.847,-0.0036607693276106135,0.0035877964868900047,0.0044758069583524795,-0.7802603377218118,-0.5379625271401106,,0.5343017578125,-0.523651123046875,-0.65325927734375
480,32.897,0.12810494807705985,0.06015959849542851,-0.21574476297084877,-0.7537243399389838,-0.5602495441104401,,0.6883544921875,-0.4842071533203125,-0.8400726318359375
481,32.946,-0.09499703849571184,-0.11670119530493672,-0.3611827509100294,-0.7343998875049256,-0.6013599535347743,,0.5063629150390625,-0.6589813232421875,-0.9479522705078124
482,32.996,0.18175671754210843,-0.07162158484050007,-0.5944062447008043,-0.7144608766209029,-0.6409361535516416,,0.82269287109375,-0.6086883544921875,-1.142822265625
483,33.046,0.35632125083573396,-0.13763735633566554,-1.2057060750437005,-0.617293679505999,-0.681734169086141,,1.038055419921875,-0.7132110595703125,-1.657318115234375
484,33.096,0.47066234657823647,-0.2228842620978858,-1.6382769772959782,-0.3764112240514149,-0.690272101663951,,1.1609344482421875,-0.893218994140625,-1.9106292724609375
485,33.146,-0.2035987496160493,-0.36354521494830605,-1.1015788174611345,-0.1075751157089657,-0.7289893746160493,,0.525390625,-1.044097900390625,-1.1752166748046875
486,33.196,-0.010036533409444187,0.04197105031828241,0.04516338367582451,-0.7325215113448761,-0.1606712990344442,,0.150634765625,-0.6299285888671875,-0.6778411865234375
487,33.245,0.3917986786567119,0.4379112196352527,0.1028282591879596,-0.2285976343733077,0.6567980683051494,,-0.2649993896484375,-0.2961883544921875,-0.069549560546875
488,33.295,0.4007203211663073,0.7123051010859451,0.4691872164756956,-0.1447938399781738,0.5767914881584948,,-0.1760711669921875,-0.095977783203125,0.3509063720703125
489,33.345,0.2779366356047577,0.6536074701109602,0.41939189784355274,-0.1221084026778157,0.5092141014250702,,-0.2312774658203125,-0.200592041015625,0.314300537109375
490,33.395,-0.005524636334888311,-0.019112433981263943,0.03170541171163055,0.8564282477634998,0.1475973119072992,,-0.1531219482421875,-0.52972412109375,0.878753662109375
491,33.445,-0.3866106482369727,-0.6038417065701214,0.06245376561764204,0.8108323449605525,0.1158307580130273,,-0.50244140625,-1.1851806640625,0.867828369140625
492,33.495,-0.45014329934504893,-0.6843991780730914,0.5269064098980157,0.7374331639354079,0.0651765248737011,,-0.51531982421875,-1.3583831787109375,1.2627716064453125
493,33.544,-0.2878094415553947,-0.4452735608385029,0.4904243134244398,0.6404494768504375,0.0315875311008553,,-0.31939697265625,-1.212890625,1.13055419921875
494,33.594,-0.2846683773594141,-0.20209447431013106,0.12467596135605874,0.5114157734447187,0.0493922915858984,,-0.3340606689453125,-1.0603790283203125,0.635467529296875
495,33.644,-0.3848002066687612,-0.25762523990240993,-0.38841809764866986,0.4094494483613391,0.0842091927453013,,-0.4690093994140625,-1.166717529296875,0.0195770263671875
496,33.694,-0.3254501186521704,-0.14956890809702228,-1.577787342318694,0.4181755637509287,0.0952804721681421,,-0.4207305908203125,-1.053802490234375,-1.1615142822265625
497,33.744,-0.01954503183930019,-0.05324979853217304,-1.0807233876150386,0.4268632576465526,0.1063399779263248,,-0.125885009765625,-0.9524383544921876,-0.656280517578125
498,33.794,0.008110640626858096,-0.04086365827790228,-0.04707637109366858,-0.7551796500951615,-0.1290200966778294,,0.1371307373046875,-0.6909027099609375,-0.7959442138671875
499,33.844,-0.014302518627364494,0.12758974503013665,0.05978558525682526,-0.4243052356598092,-0.100987699291427,,0.0866851806640625,-0.7733001708984375,-0.3623504638671875
500,33.893,-0.06567194036155477,0.23163437772551088,-0.014658438863476918,0.0631563224127437,-0.2722606854787423,,0.2065887451171875,-0.728668212890625,0.046112060546875
501,33.943,-0.1363252955648397,0.29160704526646797,-0.05392682389771364,0.1818464257519893,-0.4176821070882772,,0.2813568115234375,-0.601837158203125,0.111297607421875
502,33.993,-0.23495037265277674,0.27413840884537344,0.07219597591279575,-0.2546723982292919,-0.6381180972621517,,0.403167724609375,-0.4704132080078125,-0.1238861083984375
503,34.043,-0.006467506711343773,0.5087613284899968,0.10709789528790253,-0.3874793810004934,-0.5661751483129063,,0.5597076416015625,-0.251129150390625,-0.2122955322265625
504,34.093,-0.1710663721851733,0.1659381953660125,0.20816442267309676,-0.781954870662196,-0.5406037257007983,,0.369537353515625,-0.35845947265625,-0.449676513671875
505,34.143,-0.09718668770307481,0.26653743409496033,0.09759871740195064,-0.3438456950453545,-0.3239322931718248,,0.22674560546875,-0.621856689453125,-0.2277069091796875
506,34.192,-0.007133672654773993,0.014797425830943345,0.01900897062630358,-0.7890972453890531,-0.2839433650375865,,0.2768096923828125,-0.574188232421875,-0.73760986328125
507,34.242,-0.0636147694717974,-0.2068025872027081,-0.15866361162652887,-0.9182170091176226,-0.2326668934952349,,0.1690521240234375,-0.592010498046875,-1.0516815185546875
508,34.292,0.6570713225205386,-0.11893119513762523,-0.1146015244735552,-0.9773642699077548,-0.1351955231825864,,0.792266845703125,-0.32855224609375,-1.0829925537109375
509,34.342,1.6308426943764331,-0.1715728520989157,0.08051811809496556,-0.9990510371876878,0.0206589785561206,,1.6101837158203125,-0.215118408203125,-0.9183197021484376
510,34.622,-1.8582623646454952,-0.43741469839048697,0.8995304924974469,-0.9997195721990476,0.0417010142607547,Body,-1.89996337890625,-0.4610748291015625,-0.0993194580078125
511,34.672,-1.004115014053013,-0.9238143143297238,-0.36401918565288616,-0.9990059589887236,0.0318499517672994,,-1.0359649658203125,-0.9683685302734376,-1.362518310546875
512,34.722,-0.2881786970424635,-0.6465840782225654,-0.5289608278904012,-0.9977278536369144,-0.0292980818080885,,-0.258880615234375,-0.71392822265625,-1.5262603759765625
513,34.772,0.1333531783587314,-0.4300466375281039,-0.5931349916838302,-0.997925094257586,-0.0925531937115811,,0.2259063720703125,-0.4941558837890625,-1.5867767333984375
514,34.822,0.1689615897995796,-0.6803407753868566,-0.3317725493739323,-0.9997631667270536,-0.1184834785597954,,0.287445068359375,-0.7019500732421875,-1.324493408203125
515,34.872,0.016635617099353017,-0.02262540661791701,-0.03022525059170833,-0.8005530905275907,-0.4032099639553345,,0.4198455810546875,-0.571014404296875,-0.7628173828125
516,34.921,0.12931307162168282,0.10886695191907436,0.12907747831358318,-0.8066931840847951,-0.4527639547455047,,0.5820770263671875,-0.418060302734375,-0.5901947021484375
517,34.971,0.08748695206161033,0.08618262390083509,-0.09456191831839322,-0.8126707820091589,-0.4949257676649521,,0.5824127197265625,-0.420166015625,-0.80072021484375
518,35.021,0.06966130790507896,-0.1476346754689094,-0.36617402720035463,-0.7874943839537887,-0.548106026079296,,0.617767333984375,-0.6631317138671875,-1.02484130859375
519,35.071,-0.009115931785417808,-0.23296791820467483,-0.5306710422483017,-0.7995482155564363,-0.5959689591291678,,0.58685302734375,-0.7152557373046875,-1.1727142333984375
520,35.121,-0.10610597120924403,-0.04878100383952633,-0.7531439580313896,-0.796528490686558,-0.6584283589045565,,0.5523223876953125,-0.5038299560546875,-1.3526458740234375
521,35.171,-0.008519940148567606,0.008836671354017667,0.011267615675358944,-0.7868762827076968,-0.5113275573360676,,0.5028076171875,-0.5214996337890625,-0.6649627685546875
522,35.22,-0.008595930067230306,0.012573032913600901,0.012375109355928782,-0.7014749465650781,-0.4380240306531678,,0.4294281005859375,-0.62811279296875,-0.61822509765625
523,35.27,-0.0031816759625741264,-0.17809421151346017,-0.05429899124373028,-0.6665994563207112,-0.4582903185406991,,0.455108642578125,-0.8406219482421875,-0.6467742919921875
524,35.32,-0.025996499162818043,-0.31247919751592057,-0.30511029668924927,-0.6606950464063066,-0.470240883928443,,0.444244384765625,-0.9749603271484376,-0.8881988525390625
525,35.37,0.0023744766285291874,-0.1267224596103106,-0.2711320198449092,-0.6537232382880568,-0.4762784774730333,,0.4786529541015625,-0.7921142578125,-0.845947265625
526,35.42,-0.0670281310012586,0.26395031523960943,-0.21766816191102745,-0.6122484304580866,-0.4689446349075086,,0.40191650390625,-0.43438720703125,-0.7584228515625
527,35.47,-0.08126502943209321,0.2372205512876604,0.25621081577299787,-0.7337773578173239,-0.2266812891977182,,0.145416259765625,-0.4244842529296875,-0.458465576171875
528,35.52,0.034470503932728505,0.38127915237657495,0.2153450309833459,-0.4917793123180435,0.0784768515889785,,-0.04400634765625,-0.48675537109375,-0.2749176025390625
529,35.569,0.018709937644495397,0.24583110882245196,0.15595176107171982,-0.5356862188574084,0.0641353526835579,,-0.0454254150390625,-0.5968475341796875,-0.378631591796875
530,35.619,-0.018965442810738975,-0.05211337300548047,-0.025123213327181704,-0.4342588323509102,0.311509410704886,,-0.330474853515625,-0.9080810546875,-0.437774658203125
531,35.669,-0.20145758662122631,-0.5613192740838919,0.2237768823049131,-0.3775055081871371,0.3403209778318987,,-0.541778564453125,-1.4320526123046875,-0.131195068359375
532,35.719,-0.06092437395228473,-0.6310711399844104,0.597776740440378,-0.3185318805155307,0.3229257237039653,,-0.38385009765625,-1.5281982421875,0.2963104248046875
533,35.769,-0.141954961806592,-0.6869609395354486,0.7646391143602224,-0.2424010704451165,0.298169549912158,,-0.44012451171875,-1.613006591796875,0.53326416015625
534,35.819,-0.08556037028822372,-0.4572137356167374,0.7435931999012542,-0.0920922373051214,0.2573198787352138,,-0.3428802490234375,-1.41943359375,0.65460205078125
535,35.868,0.048728182056760494,-0.10780540697219432,0.43068817021143646,0.0577344309766189,0.2171241781505105,,-0.16839599609375,-1.0823211669921875,0.4870452880859375
536,35.918,-0.051195480871003396,0.24243302970461222,-0.1527219080608564,0.5330104214534122,-0.1758903050897534,,0.12469482421875,-0.590484619140625,0.371978759765625
537,35.968,-0.2599456394308958,0.40717238913598064,-0.20933750456453643,0.4572349747239827,-0.4937408054465208,,0.233795166015625,-0.3662109375,0.1882781982421875
538,36.018,-0.04395751554228791,0.27182579398320317,-0.2618932660032225,0.6938273650913545,-0.1156738241360379,,0.07171630859375,-0.4434814453125,0.427276611328125
539,36.068,-0.05795437436514189,0.29151716691062435,-0.2815531186076564,0.6947072213873832,-0.1415572796385794,,0.0836029052734375,-0.4205322265625,0.406158447265625
540,36.118,-0.14743808742729148,0.2646348802448957,-0.40673442137556537,0.8382010475152778,-0.2907181167241665,,0.143280029296875,-0.257171630859375,0.395263671875
541,36.167,-0.07016869603250969,0.6296473843614704,-0.6217301530519981,0.7891909817730275,-0.1747371774778222,,0.1045684814453125,0.0249481201171875,0.1553192138671875
542,36.217,-0.1553141652689126,0.821133058534128,-1.1679283495232027,0.6564307383786407,-0.0439097463236001,,-0.1114044189453125,0.067474365234375,-0.5121307373046875
543,36.267,0.5055195443056605,1.1432797350173454,-1.1151877510272823,0.4452087746751356,0.0343891732119105,,0.47113037109375,0.248382568359375,-0.6702423095703125
544,36.317,0.37456156506018634,0.8918340243152731,-1.297929155813808,0.1337897080962322,0.1853678394742488,,0.1891937255859375,-0.082000732421875,-1.1664581298828125
545,36.367,1.5426184862374133,-0.14706122970189284,-1.0236426958548186,-0.1012919210027746,0.2887274950264757,,1.2538909912109375,-1.09954833984375,-1.1206207275390625
546,36.417,1.8659246080874508,-0.5790917866704274,-1.8808988767496782,-0.3731013285478348,0.4013860338687007,,1.46453857421875,-1.428863525390625,-2.222625732421875
547,36.706,-1.6599444078574208,0.15605961208415808,-0.18137941566091348,-0.5296990128571267,0.4812451673378918,Body,-2.1411895751953125,-0.5874481201171875,-0.6457061767578125
548,36.795,0.23526181608700275,-1.3719031321787316,-0.7978832167207941,-0.5161779927721746,0.4807299557354403,,-0.2454681396484375,-2.1229248046875,-1.2505035400390625
549,36.845,0.9278971901036812,0.07002804588786249,-1.2199646331014113,-0.5132149531339244,0.4149729957677437,,0.5129241943359375,-0.710845947265625,-1.6869049072265625
550,36.895,1.1087897612555173,0.3227757947116443,-0.6682634268851515,-0.4550787907356169,0.3995002104742673,,0.70928955078125,-0.4935302734375,-1.08544921875
551,36.945,0.8328550475194678,0.43537701478471735,-0.15245439717561848,-0.4684032750927686,0.3538053649022804,,0.4790496826171875,-0.3909912109375,-0.5905609130859375
552,36.995,0.9831528237733547,0.8593974901843746,-0.0813332536308567,-0.513129410875633,0.2886795571717922,,0.6944732666015625,0.037628173828125,-0.5726165771484375
553,37.045,1.0816189030114771,0.7636176020314127,-0.2790997951438998,-0.5167081707843987,0.2868496159021022,,0.794769287109375,-0.0565643310546875,-0.7740936279296875
554,37.095,0.7816761064533064,0.2200760722365338,-0.3688439925290995,-0.5405947268300401,0.321089558601744,,0.4605865478515625,-0.57666015625,-0.8808135986328125
555,37.144,1.1634621890012533,-0.28421059500834245,-0.5360075051917091,-0.6814811562067196,0.3654580386106282,,0.798004150390625,-0.965423583984375,-1.17034912109375
556,37.453,-1.8632081747509224,0.42179372435327034,1.845476194320624,-0.6982029885752481,0.3543058633350151,,-2.2175140380859375,-0.2476654052734375,1.19256591796875
557,37.563,0.6250435991473529,-0.1772983928335109,-1.5317784671184753,-0.7229746861279137,0.3045327348895404,Body,0.3205108642578125,-0.835357666015625,-2.2204132080078125
558,37.613,0.5881110995156077,0.13329001137891772,-0.3145156879848532,-0.6799158044642385,0.2665473788124827,,0.321563720703125,-0.5734710693359375,-0.9698333740234376
559,37.663,0.5699067773270189,0.5689449715913377,-0.22284935683274276,-0.6393265216360289,0.1996522607254564,,0.3702545166015625,-0.18450927734375,-0.84930419921875
560,37.713,0.48525696809062724,0.7142457098720524,-0.40054766228466165,-0.6034097133744674,0.1433380227781272,,0.3419189453125,-0.074951171875,-0.9977264404296876
561,37.762,0.4177860789632025,0.6972349915883652,-0.6225465581971016,-0.5548537427374852,0.10185285142414,,0.3159332275390625,-0.1303863525390625,-1.1745147705078125
562,37.812,0.5856222414189871,0.7101056064964828,-0.16320734691257854,-0.505850267230825,0.0721334718877371,,0.51348876953125,-0.1502685546875,-0.6677398681640625
563,37.862,0.4566449561836182,0.6430931693351823,-0.4609114861985601,-0.4774398220919151,0.0638226905586182,,0.392822265625,-0.2337799072265625,-0.9373779296875
564,37.912,-0.01650123360873429,0.02339635581982835,0.031159183348774877,-0.7996676630048767,-0.3899600959134218,,0.3734588623046875,-0.529510498046875,-0.7052001953125
565,37.962,0.2822445315614244,0.04335025354503075,-0.2038745555808017,-0.8299520297252729,-0.3750278073057631,,0.6572723388671875,-0.4737701416015625,-0.9732513427734376
566,38.012,0.9566971789336054,-0.05621130168381716,-0.4794951993911526,-0.8876885000027068,-0.3533461560273321,,1.3100433349609375,-0.4869537353515625,-1.3099212646484375
567,38.351,-2.488166122700786,-0.354670089055267,1.050245516941255,-0.937891488068388,-0.2761299898882862,,-2.2120361328125,-0.6881103515625,0.1488189697265625
568,38.45,-0.1772202956119744,-0.4542992897494552,-1.1864677880023557,-0.9413419862412364,-0.2827348219791619,Body,0.1055145263671875,-0.777984619140625,-2.0894012451171875
569,38.5,-0.10984300326085222,-0.3993139167581177,-0.500965048747352,-0.9120800121601054,-0.2959849710342898,,0.1861419677734375,-0.79095458984375,-1.3721771240234375
570,38.55,-0.14650231049652251,-0.2282316123928207,-0.4317942368276847,-0.8768848978309811,-0.3125789706527725,,0.16607666015625,-0.684844970703125,-1.264739990234375
571,38.6,-0.11466255816825299,-0.05412840950734871,-0.4921390692458876,-0.8702882149257636,-0.3366931978166905,,0.2220306396484375,-0.517913818359375,-1.311614990234375
572,38.65,0.14490096868432722,0.21205420721020996,0.026458394415664777,-0.8618594269562725,-0.3666194170578603,,0.5115203857421875,-0.2597808837890625,-0.775390625
573,38.699,0.2085934323279427,0.40403498799372156,0.18075404098744374,-0.8676202317411108,-0.3860720950158073,,0.59466552734375,-0.0546417236328125,-0.619598388671875
574,38.749,0.3038559053331092,0.1864089381749069,0.04368669469478981,-0.8932737998285569,-0.3848342802137658,,0.688690185546875,-0.228485107421875,-0.780792236328125
575,38.799,0.4739261963200452,-0.05281810468553555,0.06404097654219087,-0.9203317130555114,-0.3962367675471423,,0.8701629638671875,-0.4119415283203125,-0.7809600830078125
576,38.849,0.16637714520540592,-0.6704742207303651,-0.9945285951232583,-0.9703935973285776,-0.4203080354586566,,0.5866851806640625,-0.8896331787109375,-1.8750457763671875
577,38.899,1.5070983294340299,-0.8282165175631926,-1.3194120876189155,-0.9999935117541288,-0.4222382184175325,,1.9293365478515625,-0.83148193359375,-2.22589111328125
578,39.006,1.1194352506787886,-0.2605779387764551,-2.4658072825360158,-0.9983766434142336,-0.2354689241258989,,1.3549041748046875,-0.3159332275390625,-3.4361114501953125
579,39.198,-2.76040166950721,0.06255310100843374,2.581111726179919,-0.9984766933900404,-0.2110852632572098,,-2.54931640625,0.0086212158203125,1.605133056640625
580,39.318,0.07626909605315019,-0.873772721830907,-1.1214969713432055,-0.9964018282263994,-0.1803379596109123,Body,0.2566070556640625,-0.9571380615234376,-2.1015625
581,39.367,0.3287683848859698,-0.8660933668244082,-0.513464395624179,-0.9914426667469994,-0.1638005848405927,,0.4925689697265625,-0.994873046875,-1.49151611328125
582,39.417,0.5273578917506495,-0.595201008050623,-0.3564472977459886,-0.9858667249327776,-0.208130999850913,,0.7354888916015625,-0.759063720703125,-1.3207244873046875
583,39.467,0.3280394511541823,-0.34924286018523976,-0.1915365499059487,-0.9750383599587746,-0.2482087177911302,,0.5762481689453125,-0.5643310546875,-1.1360626220703125
584,39.517,-0.16025916025462073,0.12194458894018512,0.12614416273246987,-0.7189734752964542,-0.6744193165046207,,0.51416015625,-0.3912353515625,-0.4047088623046875
585,39.567,-0.36002708773852243,0.3790421628133004,0.3825995921881216,-0.6837084706788532,-0.6827657351994599,,0.3227386474609375,-0.154144287109375,-0.116943359375
586,39.617,-0.5168003219261044,0.3398166351437776,0.07012655224276237,-0.6732251498923887,-0.6810459273948544,,0.16424560546875,-0.201629638671875,-0.4228363037109375
587,39.666,-0.5673593146102979,0.14332913712413564,-0.27372910755706903,-0.6957164911494687,-0.6708901983993604,,0.1035308837890625,-0.38934326171875,-0.789642333984375
588,39.716,-0.10972556657506549,-0.0993201985395375,-0.5529900815238928,-0.7607066488279393,-0.6682887989969405,,0.558563232421875,-0.582183837890625,-1.1188812255859375
589,39.766,0.14641548984657582,-0.7552220492302113,-1.1236381300154106,-0.8479195482775099,-0.6490251839815492,,0.795440673828125,-1.1585235595703125,-1.768707275390625
590,40.135,-2.844558464095641,-0.14813121042446503,-0.020148112745063673,-0.9262051793972208,-0.608993278548766,,-2.235565185546875,-0.447174072265625,-0.754791259765625
591,40.235,-0.3258107194369154,-0.4356510591285079,-1.2747944971397385,-0.9306613089779068,-0.6234334001009779,Body,0.2976226806640625,-0.7217254638671875,-2.0024566650390625
592,40.284,-0.3403232664931487,-0.5332226155789139,-0.5979323962989767,-0.9029416479649705,-0.6531742186415862,,0.3128509521484375,-0.858642578125,-1.281646728515625
593,40.334,-0.38979603935702967,-0.3358351464617099,-0.3253400893153795,-0.9160627512300812,-0.7361705510757797,,0.34637451171875,-0.6072540283203125,-0.9453277587890624
594,40.384,0.007251799468821596,0.2330184274220134,-0.788975784782284,-0.9225873065652144,-0.8068503733827409,,0.8141021728515625,0.0051116943359375,-1.3339996337890625
595,40.434,-0.5658377367454086,0.10364036947982633,-0.02665536899941401,-0.9254007333408416,-0.8560293871360336,,0.290191650390625,-0.0922698974609375,-0.5050201416015625
596,40.484,-0.5983883099219081,0.43807271190858443,-1.1213998834060221,-0.9286806593525389,-0.8932186321875331,,0.294830322265625,0.2713165283203125,-1.5389556884765625
597,40.534,-0.4945769399732415,0.34672521023034897,-0.34434531973751,-0.9224774794878934,-0.908837804231054,,0.4142608642578125,0.1856842041015625,-0.729156494140625
598,40.584,0.03497076670549082,0.40829351680500325,-0.394866747908685,-0.9335555450346052,-0.9186577733335716,,0.9536285400390624,0.266693115234375,-0.763671875
599,40.633,0.33489588687416494,0.08535348168380877,-1.1457744679498314,-0.950711084473145,-0.9123727898836476,,1.2472686767578125,-0.0415802001953125,-1.5349578857421875
600,41.021,-3.120161731242291,0.06316194590210505,1.0232752112316867,-0.9789968285569198,-0.9025408816329158,,-2.217620849609375,-0.024627685546875,0.601715087890625
601,41.152,-0.6553666844453794,-0.49117871768123106,-1.718355123436428,-0.9788842558182778,-0.9072282567110044,Body,0.251861572265625,-0.5771636962890625,-2.1301116943359375
602,41.202,-0.5837778706268205,-0.5365569297725405,-0.7359067434112074,-0.9590839279912032,-0.916648354025258,,0.3328704833984375,-0.64971923828125,-1.1192474365234375
603,41.251,-0.7077905821887712,-0.4241262172430411,-1.0680687517460874,-0.9577339762044352,-0.9322168517200212,,0.22442626953125,-0.528228759765625,-1.4146728515625
604,41.301,-0.45595361718757355,-0.3219552121559095,-1.3095497151071154,-0.9609555222111644,-0.953100223632886,,0.4971466064453125,-0.40570068359375,-1.6003875732421875
605,41.351,-0.6638915193399174,-0.3258088795530155,-0.9848190073763626,-0.94686721508451,-0.9672667634805424,,0.303375244140625,-0.4074249267578125,-1.22509765625
606,41.401,-0.6707817741257732,-0.21275410351353544,-0.7277488509939336,-0.9449567041513652,-0.9772087760788982,,0.306427001953125,-0.2822113037109375,-0.9283447265625
607,41.451,-0.6256337487347657,-0.24021246415195852,-0.6963205111871429,-0.936692894587956,-0.9821248376019532,,0.3564910888671875,-0.306121826171875,-0.8726348876953125
608,41.501,-0.722438608727138,-0.3981649283525119,-0.6922328080018312,-0.9276031898205536,-0.980739389977138,,0.25830078125,-0.47113037109375,-0.8734130859375
609,41.55,-0.7532446903148657,-0.7080052382055151,-0.5181429931875452,-0.9478997177311452,-0.9718573612133032,,0.2186126708984375,-0.783050537109375,-0.7414398193359375
610,41.6,-0.08749640093311395,-0.6596820489173921,-0.9839441053490923,-0.9903482461290344,-0.9665094624565514,,0.8790130615234375,-0.69525146484375,-1.23809814453125
611,41.899,-3.019168325570633,-0.24589814994657408,0.4671669700370231,-0.999484698017927,-0.9460176908050084,,-2.073150634765625,-0.2563018798828125,0.143218994140625
612,41.989,-0.690673786979926,-0.8767304703443696,-1.7344871901210106,-0.9993831419020556,-0.943359333854926,Body,0.252685546875,-0.8883819580078125,-2.0660552978515625
613,42.039,-0.3397672471258728,-0.8003453899103026,-0.6433084925740948,-0.9961547402707738,-0.9514921006414978,,0.611724853515625,-0.827301025390625,-0.949798583984375
614,42.089,-0.20596021088285388,-0.2912043186660252,-1.0873177798066616,-0.998595674312288,-0.9659242001406664,,0.7599639892578125,-0.3049163818359375,-1.3457794189453125
615,42.139,-0.43395257741733373,-0.4558923546462242,-0.7434483906686187,-0.985402349506864,-0.9598772600345212,,0.5259246826171875,-0.503631591796875,-1.019775390625
616,42.188,-0.667064337099701,-0.7971703128899762,-0.9377848623226652,-0.970944712943302,-0.955730108584076,Body,0.288665771484375,-0.867584228515625,-1.223480224609375
617,42.238,-0.5694787106564924,-0.535915676027348,-0.863345682008747,-0.9578566960348648,-0.9648644528439924,,0.3953857421875,-0.61138916015625,-1.115020751953125
618,42.288,0.02941367665257777,-0.030562534422834076,-0.02685555335080736,-0.6600808862475147,-0.5858817335036722,,0.61529541015625,-0.6393280029296875,-0.5617828369140625
619,42.338,-0.08164808936849854,0.10475910218142193,-0.4526149639155871,-0.6881880022221091,-0.642179705579436,,0.5605316162109375,-0.4514007568359375,-0.9801483154296876
620,42.388,-0.22314824700258595,-0.0037055689806422265,-0.5928413703899869,-0.6814439172150747,-0.683078666924461,,0.459930419921875,-0.5382232666015625,-1.0905303955078125
621,42.438,-0.4628774768212416,-0.1964543966865563,-0.4635546168688929,-0.6917173464730451,-0.7191488391259291,,0.2562713623046875,-0.6982574462890625,-0.9441986083984376
622,42.488,0.010418036879214304,-0.03755822322224578,-0.04180001161664948,-0.7438406195341463,-0.1822852101910982,,0.1927032470703125,-0.6947174072265625,-0.7731781005859375
623,42.537,-0.007224567718065705,0.040512043811504306,0.04110286211843339,-0.7122069353180606,-0.1242137034602532,,0.1169891357421875,-0.6560211181640625,-0.66558837890625
624,42.587,0.0034753039743583014,-0.00856935299784145,-0.012771836852330742,-0.830402324492048,-0.2204016491506417,,0.223876953125,-0.552032470703125,-0.82275390625
625,42.637,-0.017797845303800908,0.04986389062570429,0.06241283374934725,-0.7812739567546946,-0.2174591001866134,,0.1996612548828125,-0.55938720703125,-0.700164794921875
626,42.687,0.004268731331079134,-0.012857019980692996,-0.017102618971327366,-0.7993252312140902,-0.1956519229657959,,0.199920654296875,-0.602142333984375,-0.8009796142578125
627,42.737,-0.10417313817254709,-0.13229627250525444,-0.10085055119150177,-0.8070017934646474,-0.1764692807506721,,0.072296142578125,-0.7135772705078125,-0.8951873779296875
628,42.787,-0.1749622833758485,-0.06825492458003535,-0.2655739789057626,-0.810413574865413,-0.1671192657977235,,-0.007843017578125,-0.6458740234375,-1.0645904541015625
629,42.836,-0.003072454653586798,-0.04813393203229532,-0.06956728042580484,-0.8223472354614266,0.0362952211276632,,-0.03936767578125,-0.6167449951171875,-0.8913726806640625
630,42.886,-0.0057679954287672,0.08608865788285613,0.09896920745089444,-0.7544980136754633,-0.0439302268740797,,0.0381622314453125,-0.569580078125,-0.6548004150390625
631,42.936,-0.0016666396722329994,0.12327062027449365,0.11107288219975298,-0.6693952202958698,-0.0100437148675455,,0.0083770751953125,-0.619598388671875,-0.55828857421875
632,42.986,-0.0021935966370796,0.07808263168444973,0.06634105286214675,-0.6474830440060769,-0.0214044120667671,,0.0192108154296875,-0.6838226318359375,-0.58099365234375
633,43.036,-0.002699360200468702,0.03484303731438898,0.032121626002422965,-0.6778108107980578,-0.0568680613723437,,0.054168701171875,-0.6992034912109375,-0.64459228515625
634,43.086,0.0034711149287045967,-0.04303221720064487,-0.05736436488329999,-0.7999401319952602,-0.0483477327275454,,0.05181884765625,-0.6424102783203125,-0.8563690185546875
635,43.135,-0.006940946403701409,0.024474929895645814,0.02496958372272562,-0.7141450969812121,-0.1947156046068264,,0.187774658203125,-0.6621246337890625,-0.675506591796875
636,43.185,0.2675646250487564,0.2249182328131878,-0.5988318588761284,-0.654113300297673,-0.1694623524903061,,0.4370269775390625,-0.520538330078125,-1.2434844970703125
637,43.235,0.19172405477996468,-0.029736502824140087,-0.8617296992941808,-0.4138647967987429,-0.0941035819387853,,0.28582763671875,-0.93603515625,-1.2737579345703125
638,43.285,-0.0497387922286596,-0.21422304732332986,-0.5758134903339444,-0.1171223075068562,-0.0587109601974096,,0.00897216796875,-1.20562744140625,-0.6927337646484375
639,43.335,0.005916009238976394,0.04720641774665402,0.004069743034417442,-0.0858930403718656,0.1238969662702264,,-0.11798095703125,-0.9414215087890624,-0.0811614990234375
640,43.385,0.0022850479188828987,0.012306540435523372,-0.011302218686983667,0.6764145379666103,0.1354942764345079,,-0.133209228515625,-0.7174224853515625,0.65887451171875
641,43.435,-0.005939763223865399,0.06849395534720248,-0.10085081550921005,0.8272490413098886,-0.0486643725988654,,0.042724609375,-0.49267578125,0.7254180908203125
642,43.484,-0.07589008851168891,0.2888602049677299,-0.30538080594508676,0.7264844859681604,-0.1776662115585639,,0.101776123046875,-0.38739013671875,0.4095458984375
643,43.534,-0.131394156525721,0.3301979680486461,-0.29729014741487336,0.6691039586367952,-0.283585318635096,,0.152191162109375,-0.3824615478515625,0.3443450927734375
644,43.584,-0.003546663188019,0.3122743603808975,-0.21566512180409492,0.5682747746701425,-0.009345003031769,,0.00579833984375,-0.510528564453125,0.3525848388671875
645,43.634,0.006886610873191104,0.07032754466350044,-0.06525149052777957,0.6801562992319589,0.0715991352872536,,-0.0647125244140625,-0.660858154296875,0.6131591796875
646,43.684,-0.23917656444241459,-0.2631799316584915,0.14430384826279663,0.6495260529615403,0.0466968486435229,,-0.2858734130859375,-1.0226898193359375,0.793121337890625
647,43.734,-0.5953523416222147,-0.47708676356642865,0.4043303778213041,0.6557110150105417,0.0244749288855978,,-0.6198272705078125,-1.23187255859375,1.059844970703125
648,43.783,-0.8182689260587359,-0.5228805983245236,0.8283649692350504,0.6878886619775068,-0.0178691457852984,,-0.8003997802734375,-1.2485809326171875,1.516143798828125
649,43.833,-0.5863522616539881,-0.14994791790328765,0.5738455213542336,0.6833632094891509,-0.0765561190758631,,-0.509796142578125,-0.8778839111328125,1.2552032470703125
650,43.883,-0.012264741349264807,-0.027228495809597297,0.0243550971230716,0.6666847649441363,0.3182711473226102,,-0.330535888671875,-0.7338104248046875,0.6563720703125
651,43.933,0.028608953449344193,0.32378260341379705,-0.15493654411567137,0.4316459318956301,0.0794512386055942,,-0.05084228515625,-0.575408935546875,0.2753448486328125
652,43.983,-0.0663118380134905,0.5324308161667121,-0.06274437227553892,0.1170352579547518,-0.122754098755678,,0.0564422607421875,-0.45318603515625,0.05340576171875
653,44.033,-0.3067002567665933,0.3963954701569934,-0.011858115264371947,0.0299014842705447,-0.6117692264931558,,0.3050689697265625,-0.394287109375,0.0117950439453125
654,44.082,-0.0989573005809748,0.5302593755093002,0.21332201047498284,-0.3732274178396572,-0.1705973152294123,,0.0716400146484375,-0.383880615234375,-0.1544342041015625
655,44.132,-0.09706619025882851,0.5161632654255142,0.22120416322054615,-0.3939062630553024,-0.170323636547891,,0.0732574462890625,-0.389556884765625,-0.1669464111328125
656,44.182,-0.0721407850555816,0.5163387095711215,0.3745466394372271,-0.5871741718504566,-0.1123782118133941,,0.0402374267578125,-0.287994384765625,-0.2089080810546875
657,44.232,-0.1236725766552092,0.2961590411407785,0.28561928716374974,-0.6941826134911231,-0.2878571469677092,,0.1641845703125,-0.3931732177734375,-0.379180908203125
658,44.282,-0.023572735582400695,0.14628441980440288,0.19993602665321675,-0.8070500115645226,-0.0947244689808382,,0.0711517333984375,-0.4415435791015625,-0.603485107421875
659,44.332,0.4176240396145795,-0.30407062244971544,-0.35166846114804484,-0.9770355866886954,-0.0157560873385455,,0.433380126953125,-0.517120361328125,-1.328582763671875
660,44.382,2.019284386468416,0.06357865606158403,-0.6797742400335335,-0.9864722416706404,0.0098391960387284,,2.0094451904296875,-0.100341796875,-1.66619873046875
661,44.701,-1.9972065561753267,0.26519976015386415,0.30961268583763024,-0.9691598432963072,0.0890056020277982,,-2.086212158203125,0.019744873046875,-0.65570068359375
662,44.809,0.0580063189356599,-0.5656681482246794,-0.9887847140884696,-0.9662307291761928,0.0855026568262849,Body,-0.027496337890625,-0.8224029541015625,-1.95147705078125
663,44.859,0.2830142489289006,-0.3881126104707005,-0.6923753840079381,-0.9817548340068648,0.0183200350617131,,0.2646942138671875,-0.5782318115234375,-1.6739654541015625
664,44.909,0.22976676788221861,-0.5542075177866845,-0.23843080571154562,-0.9933342330653888,-0.0510712448130939,,0.2808380126953125,-0.6693267822265625,-1.23046875
665,44.958,0.0423699104789739,-0.677060257137543,-0.10135516502994024,-0.99810447055537,-0.1440467154975886,,0.1864166259765625,-0.7379608154296875,-1.08905029296875
666,45.008,0.10815580548942089,-0.5817791061140639,-0.2314629581443396,-0.999991010211118,-0.2127670460730791,,0.3209228515625,-0.5859222412109375,-1.20855712890625
667,45.058,-0.0412838856115994,-0.36066092031147834,0.10429807606303942,-0.9976832247909562,-0.2764370838537869,,0.2351531982421875,-0.4260406494140625,-0.8545074462890625
668,45.108,-0.02837831867123869,-0.12924609896392172,0.4839391343131427,-0.995206254138846,-0.3179443587103012,,0.2895660400390625,-0.2219696044921875,-0.459625244140625
669,45.158,-0.1394099256600531,-0.13463431385706376,0.5216480079053354,-0.9982733311796406,-0.3468379041756781,,0.207427978515625,-0.189727783203125,-0.4146575927734375
670,45.208,0.0054361612837442,0.19784037860427162,0.26266305008814905,-0.7987676597079795,0.0165293009321817,,-0.0110931396484375,-0.403717041015625,-0.5359954833984375
671,45.258,1.0835829203087628,0.5096823625333541,0.4402674576588722,-0.8658283180336003,-0.0522660787146748,,1.1358489990234375,0.0100250244140625,-0.42437744140625
672,45.307,1.656448394866594,0.38447920882764736,0.02180273017435508,-0.953738163012314,0.0065002747494064,,1.6499481201171875,0.0838470458984375,-0.931915283203125
673,45.618,-2.570986704410247,0.5689490238653788,1.740351046328196,-0.9811667809018808,0.0406313375819404,,-2.6116180419921875,0.375946044921875,0.7599945068359375
674,45.737,0.36263304869180657,-0.7552630192724781,-1.0558504462535014,-0.9676380046630404,0.0496905438089941,Body,0.3129425048828125,-1.007293701171875,-2.0222930908203125
675,45.787,0.592023606304857,-0.7158209542899645,-0.3806536444902566,-0.9090948227880606,0.065503830914232,,0.526519775390625,-1.1315155029296875,-1.2877960205078125
676,45.837,0.4010399673678353,-0.6163806710988536,0.05922915026275544,-0.8123115674562721,0.1133354995943978,,0.2877044677734375,-1.1958465576171875,-0.7478485107421875
677,45.887,0.5390978408769223,-0.3213414204429502,0.098924669286513,-0.7123564468716609,0.1430101943925472,,0.396087646484375,-1.0159454345703125,-0.606109619140625
678,45.937,-0.007939630271887987,0.01153701132579743,0.011489155094545511,-0.7056356480069444,-0.438298516990638,,0.43035888671875,-0.6253509521484375,-0.6227569580078125
679,45.986,-0.12889125510724486,0.1628422760066225,0.10939773400910469,-0.5576477099632874,-0.5491030470994324,,0.4202117919921875,-0.5308990478515625,-0.356658935546875
680,46.036,-0.048333646276364495,0.06960783608476451,0.054493314058400966,-0.6164318380039585,-0.4797301306513645,,0.431396484375,-0.62127685546875,-0.4863739013671875
681,46.086,0.06548426463124629,-0.10787067851020693,-0.1551376369918548,-0.6453037223364735,-0.4816959111500037,,0.54718017578125,-0.7773284912109375,-0.72064208984375
682,46.136,0.026468227038846326,-0.8420306263163504,-0.2744216217848394,-0.6610417470629545,-0.4816647075314662,,0.5081329345703125,-1.499603271484375,-0.853729248046875
683,46.236,-0.37420570653396545,-1.2456878187110696,-0.4185244246242735,-0.5959971714500718,-0.550246355948028,,0.1760406494140625,-1.9161834716796875,-0.9161834716796876
684,46.286,-0.6436700373067307,-0.34538577009177984,-0.25701040412689,-0.4848340996943975,-0.6636437921895432,,0.0199737548828125,-0.9996337890625,-0.61968994140625
685,46.335,0.06537280919165911,0.23499039583753323,0.10768983129909088,-0.4166096317024622,0.2451823795041591,,-0.1798095703125,-0.6463470458984375,-0.29620361328125
686,46.385,0.2881780361229227,0.42612800833047304,-0.11477124783391998,0.2600674425600149,0.5467534755760477,,-0.258575439453125,-0.382354736328125,0.1029815673828125
687,46.435,0.2423176877038073,0.44394675395643035,-0.06921998565219076,0.1540581649722169,0.4746785275475573,,-0.23236083984375,-0.4257049560546875,0.066375732421875
688,46.485,0.0011520178888962,0.4003626726537375,-0.2801882495854642,0.5733722159293343,0.0023574622248337,,-0.0012054443359375,-0.4189300537109375,0.293182373046875
689,46.535,0.006300967375577102,0.15260561106837123,-0.12938368221328966,0.6466871829011162,0.0314779693287021,,-0.025177001953125,-0.609771728515625,0.5169830322265625
690,46.585,0.0475189353711385,-0.21932861547659832,0.21193683041318356,0.6234999231098062,-0.0159271095507365,,0.063446044921875,-1.0010528564453125,0.835357666015625
691,46.634,-0.18176297825792131,-0.4746842500898063,0.4966653964962259,0.6012687487100017,-0.0216219870469838,,-0.1601409912109375,-1.2735443115234375,1.0977935791015625
692,46.684,0.0405849416705615,-0.4724286497097596,0.6439742733268755,0.5904190691736984,-0.033099750712251,,0.0736846923828125,-1.279083251953125,1.23406982421875
693,46.734,-0.0323008284049575,-0.4188707962020468,0.2700457542286909,0.5897009909328372,-0.0290964827018325,,-0.003204345703125,-1.2261505126953125,0.8594970703125
694,46.784,0.1118764988393179,-0.29686791312056426,0.08994801851003043,0.6300562852534652,-0.0076303370981821,,0.1195068359375,-1.073394775390625,0.7199859619140625
695,46.834,-0.011850374499421099,0.11082283692696904,-0.026897998613660268,0.2358638539485573,-0.1033573325072336,,0.0915069580078125,-0.8557586669921875,0.20770263671875
696,46.884,-0.0438240706806963,0.3060775439158653,0.014810976119841633,-0.0483330660709646,-0.1415718734150713,,0.097747802734375,-0.6826934814453125,-0.0330352783203125
697,46.933,-0.1422965048043674,0.39211060390012575,-0.0549945678665994,0.1388932728176226,-0.3382040975778049,,0.1959075927734375,-0.5398406982421875,0.075714111328125
698,46.983,-0.2740681830676018,0.5301797680022339,0.11222283931722002,-0.2070812133336736,-0.4512990180285393,,0.1772308349609375,-0.3428497314453125,-0.07257080078125
699,47.033,-0.0277333200112565,0.8779440920325041,0.12062635007983918,-0.3215934848979805,-0.3235402047768815,,0.295806884765625,-0.01800537109375,-0.1836700439453125
700,47.083,-0.10099991087654889,0.9692329420373913,0.6468805156933577,-0.4508489369769109,-0.1627369714234239,,0.061737060546875,0.088531494140625,0.2020416259765625
701,47.133,0.0972047238160675,1.1078785125458002,0.22787946718236796,-0.7309473969345829,-0.0015806765745575,,0.098785400390625,0.425445556640625,-0.5030670166015625
702,47.183,-0.1745005124494693,0.04321083972877143,-0.7449747531874976,-0.9293785531894164,0.1385488039567807,,-0.31304931640625,-0.322357177734375,-1.6653900146484375
703,47.233,1.0120529477445752,-0.5076715241015557,-0.7509140138545717,-0.9951549230212156,0.1611465756742628,,0.8509063720703125,-0.604705810546875,-1.733062744140625
704,47.312,2.293648120897052,-0.48099481093802915,-0.41199179426048815,-0.9987902773951216,0.284401294725177,,2.009246826171875,-0.52813720703125,-1.369537353515625
705,47.591,-2.087319143130478,0.2123398854511489,2.175084351745107,-0.9934340972888018,0.4119636937835846,,-2.4992828369140625,0.10809326171875,1.269866943359375
706,47.641,-0.2150361040996489,-0.9614416968651395,-0.6892868268219385,-0.995077912981191,0.5283263226581636,Body,-0.7433624267578125,-1.0455780029296875,-1.534149169921875
707,47.701,0.7033962034064758,-1.0893226127261544,-1.3560505210020344,-0.9998488461664428,0.5969356321174133,,0.1064605712890625,-1.103271484375,-2.1582183837890625
708,47.751,0.8581703586229379,-0.9142377631843909,-0.34164802400027094,-0.992915149968379,0.6163185519823129,,0.241851806640625,-1.0078125,-1.123565673828125
709,47.801,0.8734844126329788,-1.0171356760175647,0.046082878676298455,-0.9961770497111134,0.6027934946642288,,0.27069091796875,-1.0868377685546875,-0.7487640380859375
710,47.851,1.001346146588035,-0.8861758687380243,-0.18753991286835947,-0.9973986445423366,0.5711856241270973,,0.4301605224609375,-0.945343017578125,-1.0062255859375
711,47.9,0.919557285760151,-0.7554356219932732,-0.1459811869389931,-0.9941914706284176,0.515779209588276,,0.403778076171875,-0.8476409912109375,-0.9977264404296876
712,47.95,0.9936928922588526,-0.48736279964483464,0.12460629543077761,-0.98971810809343,0.4581246549541651,,0.5355682373046875,-0.614501953125,-0.7551422119140625
713,48.0,1.090203849346538,-0.4058694511258202,0.0471429457667466,-0.9849776782190136,0.3874450602840381,,0.7027587890625,-0.5650634765625,-0.86090087890625
714,48.05,1.4282246970990535,-0.5805899056978459,-0.26601655205657415,-0.9689918379284328,0.3308583640912411,,1.0973663330078125,-0.8137664794921875,-1.1804351806640625
715,48.11,1.1666603306513528,-0.6400326031124348,-1.1966431701994857,-0.8966658453253799,0.2829323033076028,,0.88372802734375,-1.0646514892578125,-2.056671142578125
