Index,Time,Acceleration X,Acceleration Y,Acceleration Z,Orientation X,Orientation Z,Punch,Raw Acceleration X,Raw Acceleration Y,Raw Acceleration Z
0,0.0,-0.086692687476619,-0.02328963890992547,-0.10273607945812258,-0.9752547104225068,-0.0411757197031815,,-0.0455169677734375,-0.2441864013671875,-1.0771636962890625
1,0.049,-0.0589421247297661,-0.022671379394346658,0.05260161938880403,-0.9654656834915564,-0.0494664167219536,,-0.0094757080078125,-0.2828826904296875,-0.91168212890625
2,0.099,-0.1442518479315155,0.01248498440482998,-0.050175371758005904,-0.9463103074175704,-0.0522413498846405,,-0.092010498046875,-0.310333251953125,-0.9951934814453124
3,0.149,-0.1998593124737681,-0.019997236642534832,0.0309273760736416,-0.9302436490609626,-0.0460202011456431,,-0.153839111328125,-0.3865509033203125,-0.8983306884765625
4,0.199,-0.2789813834516795,-0.018145387144439973,0.0023073087694414074,-0.911412105323752,-0.059575255521992,,-0.2194061279296875,-0.4289093017578125,-0.9074859619140624
5,0.249,-0.2503679762767298,-0.011905562228392064,0.12691781653867162,-0.9078515998390122,-0.0676439772532923,,-0.1827239990234375,-0.43023681640625,-0.7788543701171875
6,0.299,-0.2506672102035576,0.012757023335571882,0.04118283226312336,-0.9090202723730536,-0.0701099592269951,,-0.1805572509765625,-0.4029693603515625,-0.8656005859375
7,0.348,-0.28503102139828207,0.050466612688586265,-0.03356559664271108,-0.8895403930172994,-0.0766875155389071,,-0.208343505859375,-0.4050445556640625,-0.9204864501953124
8,0.398,-0.3896699155244323,-0.006850530607470984,0.08262087852877875,-0.8776861545511484,-0.0866608823213073,,-0.303009033203125,-0.484283447265625,-0.7917633056640625
9,0.448,-0.34484401602711157,0.055207714166420285,-0.0030990588656274465,-0.8832320077633996,-0.0694076146599241,,-0.2754364013671875,-0.41259765625,-0.8842010498046875
10,0.498,-0.427044605129861,0.03984505407715572,-0.08266181155532037,-0.8725246412851262,-0.085644458645486,,-0.341400146484375,-0.446929931640625,-0.9519805908203124
11,0.548,-0.023828719726559422,-0.03695439027655334,-0.05901949185302624,-0.8475642422402623,0.3237664951171906,,-0.34759521484375,-0.5390625,-0.860931396484375
12,0.598,0.10433110423542014,0.13320365632868425,0.06271401006799315,-0.8238384748295393,0.2924261970088577,,-0.1880950927734375,-0.408843994140625,-0.7251129150390625
13,0.648,0.07785973606034041,0.18509661335513228,0.1848903775742351,-0.7067125204581435,0.2852419382087779,,-0.2073822021484375,-0.493011474609375,-0.492462158203125
14,0.697,0.02058261760511579,0.09020225340047316,0.12293799382985493,-0.8062557124679056,0.1337723148707408,,-0.113189697265625,-0.4960479736328125,-0.6760711669921875
15,0.747,-0.289705805364041,0.07878043881318897,-0.1632134750219273,-0.7734932054637278,0.1672491506906465,,-0.4569549560546875,-0.5460968017578125,-0.925811767578125
16,0.797,-0.5032564394225745,0.0858061319835185,-0.009861024928199735,-0.7548923696108506,0.2098783262024255,,-0.713134765625,-0.5554351806640625,-0.7479400634765625
17,0.847,-0.4478231867517693,0.215720951119048,-0.29207624716145897,-0.5679584607361192,0.1681893864904182,,-0.6160125732421875,-0.595611572265625,-0.8519439697265625
18,0.897,0.18190929905447528,0.37391680280524986,0.024499312148841913,-0.0653805693598253,0.4367158176091628,,-0.2548065185546875,-0.5237579345703125,-0.0343170166015625
19,0.947,-0.05974996989996412,-0.14263596573068849,0.33187648552216914,0.0854794428744498,0.3930393367406609,,-0.452789306640625,-1.0587921142578125,0.4104766845703125
20,0.996,-0.0976335998444825,-0.09509818173477436,0.692395806343078,0.0373696993701016,0.3701093200773925,,-0.467742919921875,-1.0234375,0.72711181640625
21,1.046,-0.021446737658957382,-0.2800385258911091,0.1055519041373274,0.0281143672541825,0.3357462555051051,,-0.3571929931640625,-1.22161865234375,0.1320343017578125
22,1.096,0.028001559824738176,0.09267701451715837,-0.05129613892796531,0.484263793169077,0.2555711399028632,,-0.227569580078125,-0.7531890869140625,0.4168853759765625
23,1.146,-0.012706979630879398,0.34513197014982244,-0.1546201629646342,0.4088485566660423,-0.0335810030683794,,0.0208740234375,-0.56695556640625,0.253997802734375
24,1.196,0.012167340172018398,0.2658330615434137,0.06520151101172006,-0.2382117930026848,0.0444091614610809,,-0.0322418212890625,-0.7044219970703125,-0.1727752685546875
25,1.246,-0.5010480384515882,-0.4261361485959325,-0.07187489578010109,-0.1887176394317169,0.0542192955327868,,-0.555267333984375,-1.4067230224609375,-0.26031494140625
26,1.296,-0.4558037989536016,-0.6204380969089732,0.23822442125631405,-0.1478931974403665,-0.0033044093051641,,-0.4524993896484375,-1.60943603515625,0.09033203125
27,1.345,0.0025199563429290917,0.011063749357632324,-0.0016083849118930515,0.1438620880371443,0.2198814065382416,,-0.2173614501953125,-0.954315185546875,0.13873291015625
28,1.395,-0.08032292081533399,0.25241900414935703,-0.02171845170168496,0.0857245414790745,-0.302216231362209,,0.221893310546875,-0.6973114013671875,0.05999755859375
29,1.445,0.012946107509418506,0.18142908963960835,-0.010739693703323512,0.059091553804572,0.0710515762594185,,-0.05810546875,-0.814300537109375,0.0482025146484375
30,1.495,0.023260050101902296,0.12514217022143703,-0.06019556935100995,0.4334761269437768,0.1651973059612773,,-0.141937255859375,-0.763641357421875,0.3673248291015625
31,1.545,0.00043055208484399365,0.003907089413630271,-0.0008254760923513682,0.2067132387449084,0.1071962991551565,,-0.1067657470703125,-0.9688568115234376,0.2046966552734375
32,1.595,-0.013303056365877697,0.22547503278537395,-0.09034992448491991,0.3719581354077467,-0.0546848923033777,,0.0413818359375,-0.701385498046875,0.2810516357421875
33,1.644,-0.0827305995826039,0.46310975747939476,-0.13612691151005518,0.2820102721850628,-0.1689274989966664,,0.0861968994140625,-0.482513427734375,0.1418304443359375
34,1.694,0.020453829222207814,0.16939407970752696,-0.03115142525091777,0.1808662196737431,0.1179269737534578,,-0.09747314453125,-0.8072509765625,0.1484527587890625
35,1.819,-0.5835710973404944,-1.1776471730016387,0.40734757166389357,0.3196934093487157,0.0113843469954431,,-0.5949554443359375,-2.1251068115234375,0.727020263671875
36,1.869,0.5052851127567142,-0.09593425934542033,0.026962795685459895,0.4516011556692578,-0.1546727729854733,,0.6599578857421875,-0.9774169921875,0.4731292724609375
37,1.919,1.4800000001698415,0.10127372938588775,-0.38167993150483237,0.6651097996718383,-0.2528033445567211,,1.7328033447265625,-0.6212158203125,0.2618255615234375
38,2.228,-3.0440846288721444,2.1495440759691173,-0.07784028778720464,0.5790107302355014,-0.4281941259424567,Straight,-2.6158905029296875,1.412750244140625,0.445404052734375
39,2.277,-0.5069015676394806,0.6964579601053368,0.7294965591236569,0.4685560823546396,-0.5876510793582306,,0.08074951171875,-0.018341064453125,1.108612060546875
40,2.327,0.11003163365848911,0.4605947381729234,0.6626084160250175,0.3509599707742684,-0.6953730294274484,,0.8054046630859375,-0.21234130859375,0.914825439453125
41,2.377,0.5569803439670312,0.5178788979533288,1.2679711140900107,0.2465522946739104,-0.7639577663845313,,1.3209381103515625,-0.1074676513671875,1.42706298828125
42,2.427,0.010961722180221622,0.3185969898328451,0.42275821977107897,0.1016154295568424,-0.7840974819213409,,0.7950592041015625,-0.298828125,0.4858245849609375
43,2.477,0.03888001440524047,-0.01934527209587833,0.725728303449169,0.0400781634373873,-0.815627431883822,,0.8545074462890625,-0.5974578857421875,0.7489166259765625
44,2.527,-0.5625607603171338,-0.17711533749474007,0.7666723627785426,0.0418029236387389,-0.8158108823874463,,0.2532501220703125,-0.7549285888671875,0.7908477783203125
45,2.577,-0.009682240766764494,0.017599778276981004,-0.01651211491248905,0.6842128454906325,-0.3723531392042645,,0.3626708984375,-0.65924072265625,0.618499755859375
46,2.626,0.4195228403840632,0.48430430362514065,-0.14938278817322603,0.685122871874275,-0.4170555287565618,,0.836578369140625,-0.1777496337890625,0.4733123779296875
47,2.676,0.661751432085633,0.7068683268491349,-0.17726925064647336,0.6902044875281225,-0.428061800336242,,1.089813232421875,0.0529022216796875,0.446502685546875
48,2.726,-0.4291694946290625,-0.6156746522908014,-0.34054528482636093,0.6806983237036603,-0.343552429199375,,-0.0856170654296875,-1.30364990234375,0.2987213134765625
49,2.776,-0.5862939788894022,-0.7780033771139552,0.15525637843869144,0.6996200963355085,-0.3049676849440896,,-0.2813262939453125,-1.4584808349609375,0.8215484619140625
50,2.826,0.5682843498196735,0.49032780487186733,0.06812429300513323,0.6250416077287356,-0.3345476814303266,,0.90283203125,-0.2452850341796875,0.6571502685546875
51,2.876,1.0325753228433137,1.2342801028527792,-0.5872220783437782,0.5375103692787494,-0.3537772162191863,,1.3863525390625,0.445556640625,-0.08447265625
52,2.925,-0.5746416062307074,-1.4659790163267923,0.22140605812092273,0.5978868366605102,-0.2801622361135198,,-0.2944793701171875,-2.2354583740234375,0.79534912109375
53,2.985,0.1937682820699856,-1.34365266740333,1.2088815721989778,0.6940039773081064,-0.2781250284768894,,0.471893310546875,-2.03521728515625,1.8755035400390625
54,3.314,-2.528017760073083,1.4419420107683623,-0.20000000266063428,0.5697978908506619,-0.5120570667137079,,-2.015960693359375,0.7360687255859375,0.2894287109375
55,3.364,-0.8541203790677417,0.5370138501754541,1.171775142876899,0.5383142320077969,-0.6209813409818042,Straight,-0.2331390380859375,-0.1235504150390625,1.593719482421875
56,3.414,-0.14609712533008412,0.4162092316302519,0.46090025263608025,0.3954692797793253,-0.7039279358769591,,0.557830810546875,-0.2361602783203125,0.741790771484375
57,3.464,0.4941362938496692,0.3683372288390059,0.8186116365942092,0.2943295212997227,-0.7747693457987683,,1.2689056396484375,-0.23590087890625,1.00469970703125
58,3.514,0.37483718141843225,0.6373020494116571,0.5021264903643654,0.2345478437803423,-0.8223216320581302,,1.1971588134765625,0.0841522216796875,0.635589599609375
59,3.564,0.26574657083507036,0.5871741187533892,0.6029891447775837,0.1911547700373149,-0.8157201039696171,,1.0814666748046875,0.0193939208984375,0.71356201171875
60,3.613,-0.03642665423824576,0.5179485443482367,0.5066513089187964,0.2007391892582075,-0.7890969423241833,,0.7526702880859375,-0.0838165283203125,0.6299591064453125
61,3.663,0.15379933185128092,0.24526622731033587,0.6381946074390635,0.223845236525793,-0.7502381437346567,,0.9040374755859376,-0.3991241455078125,0.78619384765625
62,3.713,-0.043784546878284814,-0.20275117037531387,0.30664302785382336,0.2178441380334523,-0.6821054697298473,,0.6383209228515625,-0.91644287109375,0.4659423828125
63,3.763,0.08987615288128992,-0.044611009899953924,0.4261112790953375,0.2121288120468899,-0.6463909369624601,,0.73626708984375,-0.790252685546875,0.5879669189453125
64,3.813,-0.04329558824886881,0.04350389418788991,-0.042650949159471874,0.7000720177530529,-0.5792758128582438,,0.535980224609375,-0.5385589599609375,0.5279998779296875
65,3.863,0.14291990023496415,0.39424819080026086,-0.010749556784697467,0.681471719821925,-0.5715118624603484,,0.7144317626953125,-0.206298828125,0.5484619140625
66,3.912,-0.013554430284332453,0.010961168765767915,-0.010986850979370577,0.7079337090957845,-0.6578110220812075,,0.644256591796875,-0.52099609375,0.522216796875
67,4.002,-1.1044099063466781,-1.9711620680408142,1.3926231171923167,0.7387936861337374,-0.7465607852529281,,-0.35784912109375,-2.4195404052734375,1.8841552734375
68,4.052,0.7559163540296886,-0.25265757634247116,-0.36365928198950404,0.6943224002983449,-0.8388559848374989,,1.5947723388671875,-0.6444091796875,0.0142974853515625
69,4.301,-2.4788035106914914,-1.750027986329782,-0.18940958334054542,0.7987213189972352,-0.8509958935039915,,-1.6278076171875,-2.0660247802734375,0.2300567626953125
70,4.401,-3.2615694570369365,1.58065130457058,0.0004169727416374891,0.7601907802693852,-0.9492220449275616,,-2.312347412109375,1.376251220703125,0.2395782470703125
71,4.451,-1.3497246437881687,0.1824830200205375,1.2714333980830101,0.7775737436866995,-0.9884270363662936,Straight,-0.361297607421875,0.08709716796875,1.3893890380859375
72,4.501,-0.3170978888931636,-0.08786291015224407,1.0052670278155367,0.6914338700457361,-0.9997761115494136,,0.68267822265625,-0.1031494140625,1.0198974609375
73,4.55,0.26107004124631494,0.06183490179583059,0.7917716749170495,0.5748886926887715,-0.9973375515271226,,1.2584075927734375,0.002166748046875,0.8336944580078125
74,4.6,0.13354406134668273,-0.05615514930419706,0.3720798570556662,0.4943892632594178,-0.9964455626767548,,1.1299896240234375,-0.1293792724609375,0.413726806640625
75,4.65,0.10551414989747365,-0.17447685297424637,0.6486198573495733,0.4518065819293616,-0.9980014751025263,,1.103515625,-0.2308502197265625,0.6771697998046875
76,4.7,-0.27362218939818606,-0.49910794753522125,0.7778760243873961,0.4615037184496787,-0.999757443304436,,0.72613525390625,-0.518646240234375,0.7880401611328125
77,4.75,-0.19180032002997793,-0.6785334044062413,0.5362848189917291,0.4628365137725004,-0.9993106960065404,,0.8075103759765625,-0.7114410400390625,0.553466796875
78,4.8,-0.3941963711762817,-0.9105858856281208,0.4915075334715551,0.4714491995310663,-0.9975746670747192,,0.6033782958984375,-0.9719696044921876,0.524322509765625
79,4.85,0.05896489848580111,-0.062008230507270556,0.04783371408677406,0.6107937952532032,-0.6014965272954489,,0.66046142578125,-0.694549560546875,0.5357818603515625
80,4.899,0.026948430564104675,-0.03185494678164025,0.03029051777723768,0.6890880055688543,-0.5226578926780828,,0.5496063232421875,-0.6496734619140625,0.617767333984375
81,4.949,0.16730441567194398,0.40055964839593516,-0.2906507431835268,0.6605639623582139,-0.5131612825702435,,0.6804656982421875,-0.2438201904296875,0.27630615234375
82,4.999,-0.09245734933945604,0.08803854305222425,-0.061495474042946086,0.5726401949557345,-0.652454907933206,,0.55999755859375,-0.533233642578125,0.372467041015625
83,5.049,-0.4581232519308732,-0.437254573781122,0.22396629702710658,0.5545483176300616,-0.6230707616964982,,0.164947509765625,-1.088134765625,0.65771484375
84,5.134,-0.8175178266255283,-1.6567463624895362,0.7673179534252512,0.6272519685668884,-0.7089362836567783,,-0.10858154296875,-2.206024169921875,1.2097015380859375
85,5.184,0.7984186781331002,-0.08415374990888191,0.2542278609800913,0.7221311390438228,-0.7782567369059623,,1.5766754150390625,-0.5185394287109375,0.7076873779296875
86,5.318,1.38235788226672,1.5354608154344627,-0.3443984369781675,0.877973103265072,-0.7262084019129675,,2.1085662841796875,1.20635986328125,0.259185791015625
87,5.498,-3.38620391575899,1.8442995105288826,-0.1771693850769101,0.7570830937222159,-0.8889962741574275,,-2.4972076416015625,1.545135498046875,0.1695098876953125
88,5.547,-0.4461278639866978,0.5424969584652126,0.4626225432624243,0.6702071360211286,-0.9494542800023228,,0.503326416015625,0.3095245361328125,0.673004150390625
89,5.597,-0.12035921308746345,-0.034576980131915985,1.045312988006299,0.6114560710894322,-0.9709146330093384,Straight,0.850555419921875,-0.224029541015625,1.19171142578125
90,5.647,-0.08727127986886785,-0.05678674114459273,1.251540435764738,0.5240884578882703,-0.9853730865094928,,0.898101806640625,-0.2019195556640625,1.340850830078125
91,5.697,0.0014542921791491636,0.495744949199708,0.2415739164245617,0.322894226775979,-0.9840345994224132,,0.9854888916015624,0.327301025390625,0.299041748046875
92,5.747,-0.6550136333620457,0.21381996621338822,-0.09556452647440908,0.1941638695044261,-0.9612727886354832,,0.3062591552734375,-0.0565338134765625,-0.04205322265625
93,5.797,-0.02934659822932914,0.08636242423775242,-0.08023105501966132,0.6806213406640854,-0.2415810952996416,,0.2122344970703125,-0.62457275390625,0.580230712890625
94,5.846,-0.1852671346222899,-0.860550964047003,-0.3309232404084983,0.6749614323421429,-0.1912943563019774,,0.0060272216796875,-1.58477783203125,0.331573486328125
95,5.896,-0.10204717921550349,-1.3902691856842824,-0.30113633523755445,0.742863274640541,-0.195354674332691,,0.0933074951171875,-2.04681396484375,0.4274139404296875
96,5.946,0.8922690233247644,-0.7619251258559584,0.4321800861314832,0.7998514605497611,-0.2285500684721105,,1.120819091796875,-1.3462371826171875,1.2108612060546875
97,5.996,-0.07615048498293653,0.08502393495523819,-0.0355393791325847,0.3856575628074711,-0.6370025357641865,,0.56085205078125,-0.6262054443359375,0.261749267578125
98,6.046,-0.40679492616552515,0.5267130184418184,0.016927851620391843,0.421164026016041,-0.5937913861264627,,0.1869964599609375,-0.20306396484375,0.355804443359375
99,6.096,-0.2613036785313172,0.8044333696751422,0.06723848132621085,0.3673388985112114,-0.5315368328281922,,0.270233154296875,0.0166168212890625,0.378387451171875
100,6.146,0.0383699461532329,0.42598763381827054,-0.43528147507207426,0.7146954677429485,0.0628755613876079,,-0.024505615234375,-0.272064208984375,0.2779998779296875
101,6.195,0.08480403535263059,0.18745995508291147,-0.08123279167038172,0.3976080329667202,0.3833727609385681,,-0.2985687255859375,-0.6599884033203125,0.2859954833984375
102,6.245,-0.0005063413310605891,-0.25091543724962506,-0.09426896217162561,0.3437907395558441,0.3921480776142519,,-0.3926544189453125,-1.11474609375,0.22198486328125
103,6.365,0.6257543197228146,-1.1372280570539073,0.21536676776911495,0.4180814033574901,0.3420476546837521,,0.2837066650390625,-1.9908447265625,0.6082305908203125
104,6.415,0.15086883072014212,-0.27185461692717916,0.2856672251566173,0.4360251994997824,0.3516287184154546,,-0.2007598876953125,-1.11431884765625,0.69384765625
105,6.465,0.4808307827434105,0.7724320260718397,-0.2467342625874615,0.3804194575209328,0.350352877469973,,0.1304779052734375,-0.0937652587890625,0.1095733642578125
106,6.514,0.3559423715966164,0.8724161658011967,-0.2692944934983438,0.3511754263356764,0.3706365854638039,,-0.0146942138671875,0.0027923583984375,0.0568695068359375
107,6.564,0.2259963467388727,0.2067247404587429,-0.23821524168455743,0.7552628475485353,0.5824416592388727,,-0.3564453125,-0.3260498046875,0.3757171630859375
108,6.614,0.0993288269865219,0.19546574517831816,-0.226759106511629,0.7574367932129122,0.3149049988615219,,-0.215576171875,-0.424224853515625,0.4921417236328125
109,6.664,-0.18582181420234922,-0.2940571420648793,-0.02632270686322169,0.7602360730702554,0.3117367795476508,,-0.49755859375,-0.9113311767578124,0.6960296630859375
110,6.714,-0.3558030857391244,-0.9731773273694089,0.061092296344520736,0.747564503913528,0.2724317775421256,,-0.62823486328125,-1.61224365234375,0.7803802490234375
111,6.823,-1.147307414730553,-1.3074685654770597,0.2718983932298519,0.7523283287677432,0.242585163394447,,-1.389892578125,-1.9465789794921875,1.0017547607421875
112,6.873,-0.5051272273865005,-0.23061032147150085,-0.24160763010642228,0.7359331213822609,0.107619964996312,,-0.6127471923828125,-0.9037322998046876,0.49005126953125
113,6.923,0.0382474776857457,0.3186154867154799,-0.31900641049004597,0.7075401729248898,0.0845273849123082,,-0.0462799072265625,-0.385528564453125,0.3860015869140625
114,6.973,-0.3612099446545249,0.49085223050141147,-0.350334059381853,0.7714510118450665,-0.0862313069592124,,-0.2749786376953125,-0.14306640625,0.418243408203125
115,7.023,-0.1585766038548797,0.9051207569673478,-0.6477760852093363,0.8152336696955292,-0.2779003343236297,,0.11932373046875,0.3488006591796875,0.135345458984375
116,7.073,-0.05005669352433728,0.9341032076942613,-0.9114340929601965,0.8129517160494554,-0.4156725382508998,,0.3656158447265625,0.4044647216796875,-0.1720428466796875
117,7.123,0.20196605984520072,0.865861277276941,-1.042263367720203,0.8357889179913255,-0.4889976852719868,,0.6909637451171875,0.386932373046875,-0.3132171630859375
118,7.172,0.8101594065699719,0.15557233770608786,-0.43798446417076253,0.8875079716678643,-0.4672911549534656,,1.2774505615234375,-0.2518157958984375,0.3466644287109375
119,7.222,0.9516840002045365,0.12260340486280857,-1.4055668175440985,0.8611945001016307,-0.390830037881401,,1.3425140380859375,-0.345245361328125,-0.6128692626953125
120,7.272,0.003342479076304101,0.34969758869421885,-0.030214360242838675,0.0860806897285376,0.0095222886466166,,-0.0061798095703125,-0.64654541015625,0.0558624267578125
121,7.322,-0.14140576466603488,0.3138912107876045,-0.3210571810096672,0.7150415878741849,-0.3003870879082224,,0.1589813232421875,-0.3529052734375,0.3609619140625
122,7.372,0.269259711282822,0.6613334750882852,-0.38357296800750007,0.6558091976422085,-0.129208306295303,,0.398468017578125,-0.0872650146484375,0.2667388916015625
123,7.422,-0.0032908664835858,0.2932309389105604,-0.25960515988574173,0.6628725792592236,-0.0084025608195233,,0.0051116943359375,-0.455474853515625,0.4032440185546875
124,7.541,0.2779877407398427,-1.7369345694726925,0.5568985465797137,0.7109867488219966,-0.2781035678539073,,0.55609130859375,-2.4123992919921875,1.239837646484375
125,7.84,-3.154806892561923,3.428236605768837,-1.5534301654495422,0.4844419090618901,-0.5170810624837976,Straight,-2.637725830078125,2.679443359375,-1.1387786865234375
126,7.89,-0.2275902591938298,0.6200082220005341,1.4321719416371101,0.3646786292084358,-0.6160332523578923,,0.3884429931640625,-0.11346435546875,1.7194366455078125
127,7.94,0.3272686377832986,0.2807799076283092,0.18148522478875417,0.1580848213058132,-0.6824969872167014,,1.009765625,-0.44091796875,0.297027587890625
128,7.99,0.907965506181133,0.5634797070956962,1.1343789600727539,0.0248656613147873,-0.755120431318867,,1.6630859375,-0.0919036865234375,1.1506805419921875
129,8.04,0.4717820757363468,0.7828077645919436,0.00799665396327795,-0.2484778050628708,-0.7737928754355282,,1.245574951171875,0.1692352294921875,-0.1493988037109375
130,8.09,0.5314707379167564,0.6731967970020569,0.18482605880847844,-0.3133388826851228,-0.7398763079816811,,1.2713470458984375,0.034332275390625,-0.025970458984375
131,8.139,-0.3122805949111326,-0.25837428031465304,0.9118599989277288,-0.2057983917926698,-0.6679171915908201,,0.3556365966796875,-0.9866790771484376,0.758697509765625
132,8.189,-0.17003972549923463,-1.199945015712225,0.8328037805221309,-0.1453732381286093,-0.6873737098742346,,0.517333984375,-1.9185333251953125,0.7272186279296875
133,8.239,1.0394391233984026,-0.6983223630485051,1.0985877431791478,-0.1740837721994986,-0.7556811158594099,,1.7951202392578125,-1.34326171875,0.9845733642578124
134,8.289,0.866044920355274,0.09306435417107795,0.41226367239727346,-0.1998276425699213,-0.759229737847851,,1.625274658203125,-0.5446319580078125,0.2822113037109375
135,8.339,0.0618054866151192,0.48533040423615625,0.45576154394204954,-0.1404678455894882,-0.6945726872130058,,0.756378173828125,-0.226959228515625,0.354705810546875
136,8.389,0.48791436826864076,0.49673920131131066,0.1567168626543072,-0.3008727259568874,0.6836388555733283,,-0.1957244873046875,-0.1992645263671875,-0.0628662109375
137,8.438,0.6365592249270314,0.6499877201742054,-0.023333819083987795,-0.315093656005877,0.7377707727785939,,-0.1012115478515625,0.0093231201171875,-0.2360382080078125
138,8.488,0.755707624089577,0.5406707284978791,0.27228039736641474,-0.2908884424608887,0.7966774727223895,,-0.0409698486328125,-0.03759765625,0.096466064453125
139,8.538,0.09569764565122629,0.35776295868332886,-0.5685812322569667,0.8463889429063369,0.1410315079559138,,-0.0453338623046875,-0.1694793701171875,0.26934814453125
140,8.588,-0.0403641644795773,0.12429387139472625,-0.09791749506333947,0.6188292949646753,-0.2471817914327023,,0.206817626953125,-0.6368560791015625,0.501708984375
141,8.718,-1.3606148278050616,-1.3754692335851826,0.7854547919126189,0.6341271949010623,-0.2651711022191241,,-1.0954437255859375,-2.1210174560546875,1.396881103515625
142,8.767,-0.6756615551427293,0.20315577652703942,0.3521488598016579,0.6287118599320634,-0.3674034985021043,,-0.308258056640625,-0.5200958251953125,0.9368896484375
143,8.817,-0.5620447686057521,0.3990038376500088,0.0695337673610057,0.645441127706477,-0.4639307549338771,,-0.098114013671875,-0.2776336669921875,0.6413116455078125
144,8.867,-0.4888312370262502,0.6187125473974009,-0.35176744996238263,0.6582631534639779,-0.5792853385887502,,0.0904541015625,0.005096435546875,0.1847991943359375
145,8.917,-0.4856593694996951,0.6588816437589436,-0.45228990613849207,0.6502468258538725,-0.6692226019215701,,0.183563232421875,0.0943603515625,0.0308837890625
146,8.967,-0.1433407477377694,0.4348740491705609,-0.29809061963321665,0.6955221133549845,-0.7511746100424569,,0.6078338623046875,-0.0394134521484375,0.1610260009765625
147,9.017,0.08013602545350751,-0.04391843108349308,-0.2733373812242187,0.7360918906383579,-0.790484702085555,,0.8706207275390625,-0.45849609375,0.1775054931640625
148,9.067,-0.7906703479434761,-0.6735608843148484,0.11074079890147404,0.7764963600905018,-0.7737483508731636,,-0.0169219970703125,-1.0727386474609375,0.6026458740234375
149,9.116,-0.5482392546681161,-1.303396500447168,0.38926833824427787,0.7743741796153037,-0.7296052214649911,,0.181365966796875,-1.7360992431640625,0.9188385009765624
150,9.166,-0.41735204698240314,-0.5385515642380009,-0.16301226129486396,0.6477584576569663,-0.7050412559667781,,0.287689208984375,-1.078826904296875,0.296356201171875
151,9.216,-0.16412189394300825,0.1904910587250035,0.07207383991923394,0.5565282042029767,-0.7084334173805082,,0.5443115234375,-0.3958892822265625,0.4648590087890625
152,9.266,-0.21328544966973761,0.6144406651452644,0.2128516330426582,0.5555000116728099,-0.6795024906853626,,0.466217041015625,0.0043792724609375,0.6204071044921875
153,9.316,-0.05265639143734269,0.8203502790451311,-0.011466745383358956,0.5662132090133666,-0.6324140818670302,,0.5797576904296875,0.181854248046875,0.4271392822265625
154,9.366,-0.22295179619315353,0.3757348797866996,0.0756256150004318,0.5805552832306448,-0.5493983293962785,,0.326446533203125,-0.304595947265625,0.5607147216796875
155,9.485,0.3820683075569685,-1.7180555972273202,0.29275649558823635,0.5095728664660065,-0.7307856963492815,,1.11285400390625,-2.305389404296875,0.640594482421875
156,9.804,-3.301089995421015,1.9723346088219555,0.43797458779563747,0.3106843746251243,-0.9271733694444528,,-2.3739166259765625,1.616241455078125,0.5543670654296875
157,9.854,-0.672248759566249,0.6387291703628011,1.6355596199033424,0.1853937214505835,-0.982704081831874,Straight,0.310455322265625,0.456756591796875,1.669891357421875
158,9.904,0.6309288428457865,0.3322839625586253,1.0228602659943722,-0.1746185399300986,-0.998511464771401,,1.6294403076171875,0.2785797119140625,1.013336181640625
159,9.954,0.571652254096186,-0.35162804181611806,0.4987192604673667,-0.4672041571520321,-0.999972501763189,,1.571624755859375,-0.358184814453125,0.4952545166015625
160,10.004,0.2501903321074306,-0.2571483121764902,0.21366321727071313,-0.6109622599414395,-0.9992908690644444,,1.249481201171875,-0.286956787109375,0.1906585693359375
161,10.053,-0.05819031919421558,-0.3139930602270838,-0.02632215891074179,-0.7953670289047216,-0.9992913934129656,,0.94110107421875,-0.3368072509765625,-0.0562591552734375
162,10.103,-0.2214950009488479,-0.4732890182802796,0.48381515326811975,-0.8926162416755489,-0.9999526425504104,,0.7784576416015625,-0.4776763916015625,0.475128173828125
163,10.153,0.019866881299299255,-0.029175521765979484,-0.008535994968699057,-0.2808023312587625,-0.5470734263178882,,0.5669403076171875,-0.83258056640625,-0.24359130859375
164,10.203,0.5101699191647425,-0.837202438583574,-0.6444920050785785,-0.3780211124759196,-0.531013552514945,,1.0411834716796875,-1.6216888427734375,-0.964813232421875
165,10.253,0.3900654525587077,-0.55294525739301,-0.19854865252911957,-0.3557797076637669,-0.5343882827928547,,0.9244537353515624,-1.3428802490234375,-0.499267578125
166,10.303,-0.16006906191805548,0.13833929063602424,0.04965775964060992,-0.3378496950877964,-0.7365766302774305,,0.576507568359375,-0.4982452392578125,-0.1788482666015625
167,10.353,-0.1827362556506552,0.24669187313213758,-0.36264078309748693,0.8268245621503963,-0.3845947761584677,,0.2018585205078125,-0.2725067138671875,0.4005889892578125
168,10.402,-0.3529638200597632,0.43515149921922336,-1.0735950356600574,0.8061031201280376,-0.3265813737707007,,-0.0263824462890625,-0.124176025390625,-0.3116912841796875
169,10.452,0.047402434719076195,0.29109299351960605,0.3484937784498445,-0.7674826300024015,0.1038294366722012,,-0.056427001953125,-0.3465118408203125,-0.4148406982421875
170,10.502,0.05124926547190009,0.15749918845206057,0.14052900867583962,-0.6657646001548343,0.2359416482844001,,-0.1846923828125,-0.567596435546875,-0.506439208984375
171,10.552,-0.01291634193578059,-0.05746809753007742,-0.02395256658011108,-0.3847183799306657,0.2031328524001569,,-0.2160491943359375,-0.9612579345703124,-0.4006500244140625
172,10.667,-0.9503555316978045,-1.196255651655509,0.9661470109847032,-0.146333011369457,0.129432676310008,,-1.0797882080078125,-2.1771697998046875,0.821044921875
173,10.716,-0.6633463223091131,0.1637041670960362,1.261833362812538,-0.0097816877957515,0.0410909335502619,,-0.704437255859375,-0.8354034423828125,1.2520599365234375
174,10.766,-0.2655883120647953,0.7119155813843042,0.7910230165505859,0.008235958617895,-0.0295806216351078,,-0.2360076904296875,-0.2876129150390625,0.79925537109375
175,10.816,-0.4016300266218738,1.1293791358252725,0.3099434249524367,0.0962946707494357,-0.1343570774031238,,-0.26727294921875,0.1430511474609375,0.405364990234375
176,10.866,-0.329291948171999,1.0510613388588044,0.5226808332579809,0.1506473454041978,-0.2541729296173115,,-0.0751190185546875,0.094940185546875,0.6683807373046875
177,10.916,-0.10220824546027057,1.2515296070478148,0.32164780620739636,0.1059077889929628,-0.3314257747571456,,0.229217529296875,0.3133544921875,0.42156982421875
178,10.966,0.3062002597315344,1.0299134774527154,0.12069984296548038,0.1072639306599868,-0.3360574306981531,,0.6422576904296875,0.093505859375,0.2217254638671875
179,11.015,0.3135896990583725,0.6020595621155742,0.8401781500732618,0.0046443058917554,-0.269769065590065,,0.5833587646484375,-0.3608551025390625,0.8446502685546875
180,11.065,0.1687455023109063,-0.19574798071149835,0.5764535045331846,-0.2190025654661204,-0.1285567437828437,,0.29730224609375,-1.1633758544921875,0.3592681884765625
181,11.115,-0.018439017899753107,-0.042743913055834915,0.003667790026355061,0.085494301687986,0.3948758014361844,,-0.4133148193359375,-0.9581146240234376,0.08221435546875
182,11.165,0.144936859402063,0.5037056139377417,0.3111949694886834,-0.5255939565969454,0.237771332058313,,-0.09283447265625,-0.3226318359375,-0.1993255615234375
183,11.215,-0.141244044143215,-0.12769223406935948,-0.3235386951763556,-0.6707885052980532,0.3489445544895975,,-0.4901885986328125,-0.822723388671875,-0.9521636962890624
184,11.265,-0.08155604251534498,-0.5797984245783255,-0.298903186741157,-0.5689817541533976,0.38923863521903,,-0.470794677734375,-1.3372955322265625,-0.8230133056640625
185,11.315,-0.004021449541671995,-0.9204855220516669,0.10823981713376668,-0.4668970330815652,0.389228062177078,,-0.39324951171875,-1.7350616455078125,-0.32183837890625
186,11.409,-0.3493487381331495,-1.0960756797887716,0.41278980617384453,-0.3043451968790655,0.3305218673356005,,-0.67987060546875,-1.9951019287109375,0.12554931640625
187,11.459,-0.44514303409579736,-0.19115995148674125,0.6938119213461047,-0.1017985218994942,0.2000138262557651,,-0.6451568603515625,-1.165863037109375,0.5940704345703125
188,11.509,0.10010159952681752,0.11813298187043175,-0.16291061977084076,0.8095566390206151,0.4453774784330675,,-0.34527587890625,-0.407470703125,0.561920166015625
189,11.559,0.3871943744104682,0.1996194868224226,-0.4117013945910234,0.8856523723457348,0.2225672992151557,,0.1646270751953125,-0.253082275390625,0.4517364501953125
190,11.609,0.4964542546319599,0.44415513719477173,-0.780060717410806,0.9271525930902488,0.0096225895928974,,0.4868316650390625,0.069488525390625,0.1470489501953125
191,11.658,0.5966166876621878,0.710956554167959,-0.9824842245563464,0.9516239304232976,-0.1128712273768747,,0.7094879150390625,0.4056549072265625,-0.0369415283203125
192,11.708,0.4312557520384645,0.6097228787459567,-1.2622749288212813,0.9667946243731426,-0.1205936131959105,,0.551849365234375,0.3560333251953125,-0.3025360107421875
193,11.758,0.4528763725059702,0.27102419655691723,-1.18921885409538,0.9686224941651956,-0.0056044624549673,,0.4584808349609375,0.022491455078125,-0.220611572265625
194,11.808,-0.27205792662133355,0.2353118986446221,0.047957564421828996,-0.1996990745756167,-0.749703800644771,,0.4776458740234375,-0.4131317138671875,-0.084197998046875
195,12.197,-3.256616212689144,2.70555069011558,-0.609337910940751,-0.4995896614716678,-0.9225708025328936,Straight,-2.33404541015625,2.3713226318359375,-0.802093505859375
196,12.247,-0.25671806416138787,0.4723015533092034,1.2278577500665042,-0.5550489229344826,-0.9723094948254504,,0.7155914306640625,0.2779083251953125,1.09814453125
197,12.297,0.1503866927557912,-0.26364209707068575,1.0354801872316535,-0.7011603831684334,-0.9845925552910838,,1.134979248046875,-0.3883209228515625,0.912872314453125
198,12.346,0.2712275444288188,-0.3713556540760604,0.5189391892634108,-0.7775798886805391,-0.9964116157274312,,1.26763916015625,-0.4245758056640625,0.453125
199,12.396,0.15677518345535624,0.15281060431203028,0.8107915178976126,-0.8029192588943994,-0.9999936153727688,,1.156768798828125,0.1506805419921875,0.80792236328125
200,12.446,-0.22623437760935727,-0.13425560853767907,0.42995235506151996,-0.8305181326847073,-0.9991683375702948,,0.7729339599609375,-0.1569671630859375,0.396087646484375
201,12.496,-0.18073439308972628,-0.7148700421634857,1.0485299333115747,-0.7987079543607865,-0.9993836850819138,,0.8186492919921875,-0.735992431640625,1.0204925537109375
202,12.546,-0.5162632963605316,-0.987440969000478,1.112476643000751,-0.7955655239894986,-0.9999974272199066,,0.483734130859375,-0.9888153076171876,1.1106719970703125
203,12.596,-0.3000794370025567,-0.996140153666695,1.0688777724859706,-0.8157459897626106,-0.9999237973541192,,0.6998443603515625,-1.0032806396484375,1.058807373046875
204,12.645,-0.23346365057336915,-0.3773635402869135,0.4890259443710857,-0.8641824045690741,-0.9983104523311817,,0.7648468017578125,-0.4066009521484375,0.438812255859375
205,12.695,-0.4204688228560254,-0.017699224923201737,0.13562092615570148,-0.8915653320611904,-0.9938635982466504,,0.573394775390625,-0.0677947998046875,0.0370025634765625
206,12.745,-0.35026672733129627,0.05482111317561146,0.33202467577973743,-0.8884196128163772,-0.9895642126828588,,0.6392974853515625,-0.011322021484375,0.204010009765625
207,12.795,-0.4860464793352367,-0.1211112636710952,0.4280176483767364,-0.878206061930363,-0.9908224803117992,,0.5047760009765625,-0.185760498046875,0.3093109130859375
208,12.845,-0.16599128396315,0.1356339946378624,-0.06388879485518861,0.4261302828227468,-0.7421021238069,,0.57611083984375,-0.4707489013671875,0.22174072265625
209,12.895,-0.03689284994326081,-0.0135793904533138,0.5468304831641171,0.4882070993594286,-0.7198457308026358,,0.682952880859375,-0.6193695068359375,0.885711669921875
210,12.945,0.21114029945880097,0.3549332896478409,0.5914148253646009,0.5205557941270462,-0.7145036214396366,,0.9256439208984376,-0.242431640625,0.9556121826171876
211,12.994,0.20856873968851186,0.5121664725339213,0.24504251819019707,0.443823944389936,-0.7242925884364881,,0.932861328125,-0.1056976318359375,0.551055908203125
212,13.044,-0.6782482302068996,-0.5491744798641066,0.2357281369941172,0.4391575903114133,-0.6832073366522121,,0.0049591064453125,-1.2052154541015625,0.5564117431640625
213,13.094,-0.5450019684359231,-0.05172621310064307,0.5775873101819824,0.5167392919401657,-0.6664771881624856,,0.1214752197265625,-0.69000244140625,0.96282958984375
214,13.144,0.18031138390096446,0.9455853467311239,-0.37177973632808975,0.4312510282614259,-0.6938646414896605,,0.874176025390625,0.2958831787109375,-0.0612335205078125
215,13.194,0.34674005965638777,1.223383364317733,-0.1606113415059322,0.4072267597217084,-0.6507574989373622,,0.99749755859375,0.5299072265625,0.148590087890625
216,13.244,0.19292722485942004,0.45856219306572454,0.4224213664217413,0.4061761223120474,-0.538487570062455,,0.731414794921875,-0.311431884765625,0.764678955078125
217,13.333,-0.9258651004754822,-1.898643971096819,0.5115478132952223,0.2467577365562565,-0.6586531864129822,,-0.2672119140625,-2.6278228759765625,0.6972198486328125
218,13.682,-3.4762985142349505,1.3547768082610456,0.6854073303315242,0.2382315709412183,-0.8192397984146378,,-2.6570587158203125,0.7978363037109375,0.822021484375
219,13.732,-1.0650573736233584,0.667580401465122,1.1722662916277433,0.1023655842754574,-0.8904968267483584,Straight,-0.174560546875,0.2149810791015625,1.218841552734375
220,13.782,0.4906633962570176,0.24096356381827577,0.8089370482232501,-0.0531323150618159,-0.9423200021804824,,1.4329833984375,-0.0932769775390625,0.7911529541015625
221,13.832,0.39053530303744277,0.20527791908255622,0.870080315948341,-0.1309090770785321,-0.9578838864156822,,1.348419189453125,-0.07940673828125,0.832489013671875
222,13.882,0.32466310800576004,0.10747552883462244,1.235586010315562,-0.2541067785383344,-0.96824460683799,,1.29290771484375,-0.1343231201171875,1.17205810546875
223,13.931,-0.28195047156186404,0.20262099560613106,0.27960655386241,-0.3317764945891447,-0.965422151249364,,0.6834716796875,-0.043304443359375,0.193115234375
224,13.981,-0.2915783033046412,0.17423705332050138,0.8008953352820971,-0.3025305573244286,-0.9528942212733912,,0.66131591796875,-0.1148529052734375,0.709136962890625
225,14.031,-0.14889273525266855,0.1160650688945557,-0.11534982197139643,0.704917919828056,-0.6730016219714186,,0.52410888671875,-0.4085540771484375,0.406036376953125
226,14.081,-0.24433469206790526,-0.8448578225964956,0.4875419343544397,0.7379503931731487,-0.5980486813257178,,0.3537139892578125,-1.3857269287109375,1.0789794921875
227,14.131,-0.18652577070506837,-0.9363941223669158,0.17734316935299066,0.7519719513488713,-0.5701469865253809,,0.3836212158203125,-1.4779510498046875,0.7951202392578125
228,14.181,-0.025486478118694533,0.026181513471978723,-0.013094761815595823,0.4473230444303946,-0.656635770110882,,0.6311492919921875,-0.6483612060546875,0.32427978515625
229,14.231,-0.10840306811431699,0.4628523392589162,0.002976256299029423,0.4726248335900547,-0.694920402098692,,0.586517333984375,-0.1708526611328125,0.34283447265625
230,14.28,-0.0656619672954235,0.4506560043302693,0.19281209404487482,0.5155232725057454,-0.707431376475111,,0.6417694091796875,-0.15496826171875,0.5571746826171875
231,14.33,-0.01713858967915488,0.028430825396120407,-0.026348775117105427,0.6797404355338676,-0.4043761385072799,,0.387237548828125,-0.6423797607421875,0.5953369140625
232,14.38,-0.2296814923068895,-0.29683152687477576,0.3526923220923477,0.7207277884497497,-0.372519016720952,,0.1428375244140625,-0.940155029296875,1.02154541015625
233,14.43,0.10205337796068048,0.014252932276001107,0.15107262221345008,0.7067121292756424,-0.3827488681330695,,0.48480224609375,-0.639373779296875,0.8039703369140625
234,14.48,0.292934859202629,0.385585267634602,-0.23995314422822467,0.6619418586232444,-0.387942826344246,,0.680877685546875,-0.305267333984375,0.370147705078125
235,14.53,0.2514975532114518,0.6071396297944583,-0.3324536022881478,0.6503408973234508,-0.3534523979604232,,0.604949951171875,-0.1034698486328125,0.275909423828125
236,14.579,0.2993833323218804,0.6743377601656482,-0.2700299307491453,0.6493213830427883,-0.3168276051781196,,0.6162109375,-0.0469970703125,0.3458404541015625
237,14.629,0.08549166665877722,-0.09738029815007809,0.20163880450704796,0.612922934482429,-0.2552065755287228,,0.3406982421875,-0.861358642578125,0.7942657470703125
238,14.709,-0.3782414604708327,-1.529232388564663,1.3049978209951063,0.539995720260574,-0.4211491753145827,,0.04290771484375,-2.2926177978515625,1.794769287109375
239,14.759,1.4748474476063482,0.12922117175307524,0.6631631336516023,0.5178015769032126,-0.6220916393077143,,2.0969390869140625,-0.54058837890625,1.068572998046875
240,15.048,-2.9397558572244535,3.169653466971181,-1.4970588776049154,0.3506957926212954,-0.8438238503885162,,-2.0959320068359375,2.6671142578125,-1.308868408203125
241,15.098,-1.5974140931132945,0.5803440948192107,1.2548277274251272,0.412117113403276,-0.9330158997539194,Straight,-0.664398193359375,0.2524871826171875,1.4031219482421875
242,15.148,-0.7714993493714514,-0.08786083510432297,1.1547279771638972,0.3330577857474122,-0.9613492028870764,,0.189849853515625,-0.34747314453125,1.246429443359375
243,15.198,-0.013041317685873577,-0.3107710610731964,1.0730340342317488,0.0961577428285169,-0.980524838193686,,0.9674835205078124,-0.506256103515625,1.0919189453125
244,15.247,0.33619522556047143,-0.514904314242566,1.3619764411889086,0.0103192309480415,-0.9899766494395286,,1.326171875,-0.6561279296875,1.363433837890625
245,15.297,-0.18013407168879214,0.16006078258986922,-0.035004240618552285,0.2136441328644452,-0.7397654193450421,,0.55963134765625,-0.4972686767578125,0.1087493896484375
246,15.347,-0.020007046700620312,0.022119289149228227,-0.030271637528949125,0.8074202451807935,-0.4707974519740578,,0.4507904052734375,-0.498382568359375,0.68206787109375
247,15.397,-0.029390104462849675,0.07121781052004239,-0.08111445873658885,0.7514615419774618,-0.2627122480175372,,0.2333221435546875,-0.5653839111328125,0.643951416015625
248,15.447,-0.04058935168270089,0.08459888180400388,-0.06985087832407433,0.636690967884597,-0.3469858360577009,,0.306396484375,-0.63861083984375,0.52728271484375
249,15.497,0.012706618826439586,-0.06777811516026488,0.04167311315866706,0.5237646814237003,-0.1577035374235604,,0.17041015625,-0.9089813232421876,0.5588836669921875
250,15.546,0.6375790315894864,-0.23527036912787502,0.1492603900308247,0.5200037421240049,-0.1421145719261386,,0.779693603515625,-1.0807647705078125,0.6639862060546875
251,15.596,0.5494257990268028,-0.12173344310230771,0.16765242605663488,0.5083733878230468,-0.1239750798794472,,0.67340087890625,-0.976226806640625,0.6721038818359375
252,15.646,-0.03707029738565182,0.03209942427533741,-0.02556806323623273,0.623037283264941,-0.6703253022684643,,0.6332550048828125,-0.54833984375,0.436767578125
253,15.696,-0.08143173497399236,0.2357125117552925,-0.18218485356729192,0.6118773611965078,-0.6704972867318049,,0.5890655517578125,-0.351104736328125,0.2717742919921875
254,15.746,-0.009791413968302742,0.38741712328522127,-0.16144523830126173,0.6202615687438491,-0.6610365311558027,,0.6512451171875,-0.2011566162109375,0.3039703369140625
255,15.796,0.11485435783860898,0.4725109617460047,-0.07013740566628096,0.6288222209548678,-0.6357102173567035,,0.7505645751953125,-0.1277008056640625,0.4152679443359375
256,15.846,-0.15020314217259645,0.1350437633133983,-0.10028648874847984,0.5962024180010198,-0.666057024008534,,0.5158538818359375,-0.4637908935546875,0.34442138671875
257,15.965,-0.5454424016194468,-1.66740067851721,0.7870980955421618,0.514244147484299,-0.8148515813069468,,0.2694091796875,-2.16455078125,1.0851898193359375
258,16.015,0.38055158770896425,-0.17614732491960872,-0.27813880498647864,0.5950559268936885,-0.9181392081894733,,1.2986907958984375,-0.4946136474609375,-0.0423431396484375
259,16.364,-3.2668755090683907,0.5632128324445907,1.2204449280683065,0.6345211888664647,-0.9666740930527656,,-2.300201416015625,0.3653411865234375,1.3828887939453125
260,16.414,-1.2525432912671188,0.3524153058563507,0.9034105963452631,0.5085298921910235,-0.9872539846264938,Straight,-0.265289306640625,0.2153778076171875,0.984344482421875
261,16.464,-0.2172317808841827,-0.2781781916064304,0.702228716526588,0.3573026502817709,-0.9942856138919952,,0.7770538330078125,-0.3778839111328125,0.7403717041015625
262,16.513,0.14187225220753086,-0.5251230191714061,0.7829416129357122,0.2373152389071137,-0.9967538464252816,,1.1386260986328125,-0.60333251953125,0.8020477294921875
263,16.563,0.0565900612776844,-0.6008175491265471,0.805348652507458,0.0780532230410554,-0.9964494895035656,,1.05303955078125,-0.68475341796875,0.811920166015625
264,16.613,-0.02287579838667786,0.018615086340910802,-0.00892115387927328,0.4321763222570892,-0.7424192554179279,,0.71954345703125,-0.5855255126953125,0.280609130859375
265,16.663,-0.06173579451697819,0.21815233229840703,0.1546425244878119,0.4453449484639309,-0.7299944615091657,,0.6682586669921875,-0.3937835693359375,0.459014892578125
266,16.713,-0.1853788736406533,0.20994370535861373,-0.1649510446918261,0.6178106125856966,-0.5703276041094033,,0.38494873046875,-0.4359588623046875,0.342529296875
267,16.763,0.011460013954118775,-0.019038727289667157,0.0020847291452246175,0.1088487858666435,-0.5134575885849437,,0.5249176025390625,-0.8720550537109375,0.095489501953125
268,16.813,0.721082074838937,-0.6740293213494977,0.2502912052068346,0.1343156931343831,-0.510149614614188,,1.231231689453125,-1.5263214111328125,0.365814208984375
269,16.862,0.2221422458125228,-0.8277122424724637,0.09720148471965598,0.1999538335854579,-0.4797315334843522,,0.701873779296875,-1.687408447265625,0.27264404296875
270,16.912,0.4232484990290994,0.029712971696629897,0.8125549096773829,0.2045763746647587,-0.4432065790959006,,0.866455078125,-0.847747802734375,0.995941162109375
271,16.962,-0.36312616633924144,0.38286253313315455,-0.3848447883133289,0.7089301998185404,-0.5559972600892414,,0.19287109375,-0.2033538818359375,0.20440673828125
272,17.012,-0.4216573221008725,0.6928734583185847,-0.28897800638287274,0.6437664016410338,-0.5106465799133725,,0.0889892578125,0.034942626953125,0.2645263671875
273,17.062,-0.2287100367188621,0.7399446584898457,-0.4333892943215809,0.5703607075440165,-0.4487265162110496,,0.2200164794921875,0.005889892578125,0.076324462890625
274,17.112,0.1200283860166391,0.496120702347865,-0.12296331282480341,0.2405706518822757,0.2286099289853891,,-0.10858154296875,-0.4488067626953125,0.111236572265625
275,17.161,-0.001963016515680399,0.021765319242563197,-0.007350418290507532,0.3199592984547496,-0.0851386756953679,,0.0831756591796875,-0.9222259521484376,0.3114471435546875
276,17.211,0.0223832932976301,-1.0949974483571439,-0.019630990910244006,0.267091794504077,-0.0496534498664324,,0.0720367431640625,-2.0574798583984375,0.24713134765625
277,17.296,-1.0506447892833006,-1.48051016072306,-0.026245310537628297,0.3480505971202847,-0.0544442277598631,,-0.9962005615234376,-2.416595458984375,0.3212890625
278,17.346,-0.5172045686773322,0.15688002667684486,0.46717892062958166,0.3199528268356826,-0.1179888704351447,,-0.3992156982421875,-0.783935546875,0.7848968505859375
279,17.396,0.052283890667290195,0.8360042883289243,0.26631805273696907,0.2915707333600201,-0.1810535116764598,,0.23333740234375,-0.104736328125,0.553070068359375
280,17.446,0.1353286444006238,1.14063381963185,-0.19001751711877063,0.3093048435777563,-0.1491104425134387,,0.2844390869140625,0.2003021240234375,0.1158294677734375
281,17.495,0.1619322689964523,1.0281054239486827,-0.28024149851497027,0.3769548878510452,-0.1056305972144852,,0.2675628662109375,0.1070556640625,0.0946044921875
282,17.545,-0.126604267993203,0.6668289262042422,-0.09216631459253596,0.1369142399618231,-0.184831807055703,,0.0582275390625,-0.3066864013671875,0.042388916015625
283,17.595,0.0427319180315984,-0.15497930391912496,0.13719223826310445,0.1171690175781606,-0.1114276278668391,,0.1541595458984375,-1.14190673828125,0.253631591796875
284,17.69,-0.6417482741597097,-1.093850032821338,0.5883393528484471,0.1405224965840736,-0.0458620436909597,,-0.59588623046875,-2.0828857421875,0.7287139892578125
285,17.74,-0.1833873051087049,-0.27826966118539076,0.3265738402316372,0.0828820221587997,-0.0060496586243299,,-0.177337646484375,-1.274810791015625,0.409454345703125
286,17.79,0.029363170457495313,0.20619161561384913,-0.10475183495594959,0.4529327736357127,0.1259513052231203,,-0.096588134765625,-0.678253173828125,0.344573974609375
287,17.839,0.23466692362063113,0.7012855954411626,-0.009805204919932808,0.4903403355357685,0.1174336472534436,,0.1172332763671875,-0.164215087890625,0.477142333984375
288,17.889,0.1569429840482783,0.8192611838637954,-0.3275638572282359,0.5341064982231509,0.0816866363920283,,0.07525634765625,-0.0233306884765625,0.2047576904296875
289,17.939,0.0958809842818454,0.6129802554064371,-0.2499516726550962,0.5891589344469299,0.0549263944380954,,0.04095458984375,-0.193817138671875,0.33831787109375
290,17.989,-0.6965379387413019,-0.7251034250551361,-0.23260698474723107,0.6312628270936769,0.0430250495399481,,-0.73956298828125,-1.4999542236328125,0.3980712890625
291,18.039,-0.1967812800289619,-0.9214772953914978,-0.09374231418977785,0.5844162586594692,-0.0937844538570869,,-0.102996826171875,-1.7293548583984375,0.48809814453125
292,18.089,-0.4053151923280224,-0.7124824929244911,-0.4542262007983855,0.4623871955371125,-0.1828420477967724,,-0.22247314453125,-1.5842132568359375,0.0003662109375
293,18.138,-0.6857848746614268,-0.44555121386104124,0.13102053261745206,0.5038467704146977,-0.1617217643098643,,-0.5240631103515625,-1.2979736328125,0.62823486328125
294,18.188,-0.044185670984656866,-0.051006350665900424,0.05282142470433193,0.7193582165746133,0.5155982645622181,,-0.559783935546875,-0.6461944580078125,0.669189453125
295,18.238,0.423629049796233,0.339809822098428,-0.0564808880437454,0.7576543400714041,0.4786369843665455,,-0.0550079345703125,-0.2332305908203125,0.6087493896484375
296,18.288,0.5240105826163168,0.5677819694296062,-0.5853712658122522,0.782014296410337,0.4292687613272543,,0.0947418212890625,0.0048675537109375,0.1209259033203125
297,18.338,0.658725426078314,0.44735980888047366,-0.6669972020514091,0.8196129326197412,0.3990818713908139,,0.2596435546875,-0.0779571533203125,0.0845184326171875
298,18.388,-0.005246307804412709,0.004639440909846804,-0.005054742591911188,0.7367237031214748,-0.6074191593669127,,0.6021728515625,-0.5325164794921875,0.5801849365234375
299,18.438,-0.19671239101505666,-0.5272584551927848,0.11309697367187765,0.7379296048219641,-0.6152609749994317,,0.418548583984375,-1.0592803955078125,0.69482421875
300,18.487,-0.5379797527018042,-1.0306581989974113,-0.09061385465437277,0.6646316281115227,-0.5918127605143042,,0.0538330078125,-1.6329345703125,0.44512939453125
301,18.537,-0.38209103493722707,-0.938410557844502,-0.044930474746564586,0.5690240411526274,-0.5695299997809771,,0.18743896484375,-1.6143341064453125,0.42279052734375
302,18.587,-0.19058206256298815,-0.3557610161653383,0.12820219892748563,0.5566764053997955,-0.5744931953754882,,0.3839111328125,-1.0357208251953125,0.5838470458984375
303,18.637,-0.109822001329269,0.16750574530655837,-0.13476212331490478,0.626841225708735,-0.454914774766769,,0.3450927734375,-0.5263519287109375,0.4234619140625
304,18.687,-0.04257594991475788,0.45819605491446014,-0.3813419495311643,0.6374920276670474,-0.4541054909303829,,0.411529541015625,-0.228240966796875,0.1866302490234375
305,18.737,0.2696664423953887,0.5427116772710378,-0.2468598844903277,0.6719627305301326,-0.4549124150264863,,0.724578857421875,-0.1168060302734375,0.3515472412109375
306,18.786,-0.14595534495007662,0.3170364649495858,-0.2601623439926535,0.6343601239382947,-0.3352863996375766,,0.1893310546875,-0.4112548828125,0.3374786376953125
307,18.836,-0.9487965691936899,-0.6482494887930152,-0.09212695364341916,0.6458062316564286,-0.2336934197796275,,-0.7151031494140625,-1.3906097412109375,0.535797119140625
308,18.906,-1.1113000356404383,-1.301481655376259,0.049757769075186586,0.6704178310261573,-0.2534356557576258,,-0.8578643798828125,-2.0192413330078125,0.6982879638671875
309,18.956,-0.5897656872933086,-0.8723423624376938,0.067753426568817,0.7135542651404794,-0.3329297497933086,,-0.2568359375,-1.5329742431640625,0.7406005859375
310,19.006,0.2494831510202029,-0.5452282701455198,0.09124694610248696,0.817479662997691,-0.4394511751516721,,0.688934326171875,-1.062591552734375,0.8255615234375
311,19.056,1.4679036151112297,-0.5360337618835247,0.42319936365878486,0.9184485431115026,-0.5389323223887702,,2.0068359375,-0.8692169189453125,1.1968536376953125
312,19.235,-4.058455991909317,-1.315415001154925,-2.2973627171805147,0.7478053261440935,0.0800327776219336,,-4.13848876953125,-1.977203369140625,-1.5519561767578125
313,19.315,-2.1252719399462134,2.7336277918485608,-1.2965629570089208,0.6133579831658308,-0.1484652993212133,Straight,-1.976806640625,1.95257568359375,-0.69000244140625
314,19.365,-1.095311570228288,1.372714799362949,0.3595465108261262,0.5726328726911409,-0.297337937415788,,-0.7979736328125,0.5899810791015625,0.906280517578125
315,19.414,-0.20935880808351381,0.7185784384387377,0.8062402630533094,0.4679939437268414,-0.3786092963647638,,0.16925048828125,-0.099365234375,1.2393951416015625
316,19.464,0.5920033396143164,0.3338006598330543,0.5489921277612283,0.2734576943538293,-0.4357676564794336,,1.02777099609375,-0.531951904296875,0.7951202392578125
317,19.514,0.8244957861503015,0.33768680883075064,0.2150838483611942,0.0984101942505535,-0.4798865380684485,,1.30438232421875,-0.5353851318359375,0.301422119140625
318,19.564,0.6746923187406791,0.6176449104956172,0.15511873590183953,-0.0305260962966008,-0.5158289214936959,,1.190521240234375,-0.2386474609375,0.12896728515625
319,19.614,0.6748181918435974,0.8881293333444863,0.805373383422683,-0.0409543925052832,-0.5047777554220276,,1.179595947265625,0.025604248046875,0.77001953125
320,19.664,-0.0431611333768801,0.08186836947583365,-0.07743541200645387,0.6871640715000469,-0.3576752935331301,,0.31451416015625,-0.5965728759765625,0.56427001953125
321,19.714,0.5518055967281261,-0.8602640385569267,-0.07244393980220054,0.6896049412355457,-0.3328684755374989,,0.884674072265625,-1.54315185546875,0.5778350830078125
322,19.783,0.11074128283803741,-1.4285370011409473,0.445715757066932,0.7290265146837996,-0.2927316175525876,,0.403472900390625,-2.083038330078125,1.1428070068359375
323,19.833,0.4698661632878831,-0.26449995182989083,0.2712080567675359,0.7382104818489625,-0.3016945056574294,,0.7715606689453125,-0.9076385498046876,0.9750213623046876
324,19.883,0.15443743738272292,0.6277978227628256,-0.6232336684455088,0.6416858196419613,-0.2981229874219646,,0.4525604248046875,-0.1042938232421875,-0.0107269287109375
325,19.933,-0.01258103140241068,0.8475966092424182,-0.605491901663492,0.6107790305595481,-0.2568132091367857,,0.244232177734375,0.0823516845703125,-0.01519775390625
326,19.983,-0.1605100694631882,0.7233878406260965,-0.3264530940227285,0.6518213472822734,-0.1952695909475632,,0.034759521484375,-0.0203857421875,0.3128204345703125
327,20.033,-0.0973572157498076,0.5561411164496599,-0.28086044212830774,0.6905343759813914,-0.1475586317654326,,0.050201416015625,-0.15924072265625,0.4021148681640625
328,20.082,-0.0035536084993015027,0.021462769022857375,-0.02419327455712217,0.7480593926785306,-0.109220722757114,,0.1056671142578125,-0.6381988525390625,0.719390869140625
329,20.132,-0.5979875557846849,-1.0852638449363883,0.06669230154619843,0.7560182598028989,-0.0539506905503099,,-0.544036865234375,-1.738861083984375,0.8216094970703125
330,20.202,-1.1083607810441927,-1.3516576733366312,0.8890100034601666,0.7607811000654094,-0.0889668601457551,,-1.0193939208984375,-1.9980926513671875,1.6467742919921875
331,20.252,-0.006946262534542003,-0.030681955795225924,0.03501736752920814,0.7521320225895312,0.147564235512333,,-0.154510498046875,-0.6824798583984375,0.7789154052734375
332,20.302,0.273290267583878,0.4957391933113502,-0.2590225005839061,0.7861594826434319,0.1019493252010655,,0.1713409423828125,-0.1190643310546875,0.523040771484375
333,20.352,0.27987686766369313,0.6734761132255433,-0.3376935746349047,0.8242212049092599,0.0596162475465056,,0.2202606201171875,0.10821533203125,0.4850616455078125
334,20.401,0.5709921326406787,0.7345374037587429,-0.5866189142540498,0.8345304310485959,0.0358358826406787,,0.53515625,0.183929443359375,0.24737548828125
335,20.451,-0.030652961492617314,0.05466638898796905,-0.05076164691740015,0.680451099367278,-0.3800639722348048,,0.3494110107421875,-0.623138427734375,0.5786285400390625
336,20.531,-1.2099900130582866,-1.3782643926844633,0.3592028213760583,0.6786049104347947,-0.3462357405973491,,-0.8637542724609375,-2.0673370361328125,0.9958343505859376
337,20.581,-0.07346611440566375,0.07656056100695041,-0.051126613793609776,0.5553485508412987,-0.6237438243666013,,0.5502777099609375,-0.573455810546875,0.3829498291015625
338,20.631,0.43181096644016725,1.0660760944583627,-0.17358285799014112,0.4772733854319919,-0.6951879349270202,,1.1269989013671875,0.4344024658203125,0.16949462890625
339,20.681,0.46542039054148876,1.049231047036665,0.29367581484323446,0.5006932556259756,-0.6915315137553862,,1.156951904296875,0.4239501953125,0.6553497314453125
340,20.73,-0.6925014489894206,-1.3146265222211722,0.21177051527417917,0.5242119757081877,-0.6234249109034831,,-0.0690765380859375,-1.98046875,0.62164306640625
341,20.8,-0.46551623548043997,-2.1981373771423476,0.3524268090842294,0.4444789244823248,-0.76721301282419,,0.30169677734375,-2.7726898193359375,0.63751220703125
342,21.013,-8.573597837355745,-1.6515599945937407,-2.93536436415933,0.2165272752667041,-0.332081724074496,,-8.24151611328125,-2.5724334716796875,-2.7311248779296875
343,21.088,-4.915926253135314,1.9387048540118736,-0.6458173578671593,0.4349039601859126,-0.4053519123150018,,-4.5105743408203125,1.1155242919921875,-0.2482452392578125
344,21.139,-2.198712585861589,1.6954805570203955,0.6882158551841508,0.3893038116513688,-0.5783207401584639,Straight,-1.620391845703125,0.94403076171875,1.0058135986328125
345,21.189,-0.7406200937693681,0.7745532314204795,0.9880500639990522,0.2394806857688832,-0.6484112314646806,,-0.0922088623046875,0.0354156494140625,1.1703643798828125
346,21.239,0.07216103442090116,0.45279546670247495,0.662071900470995,0.0246508104145441,-0.7192055427275363,,0.7913665771484375,-0.241790771484375,0.67919921875
347,21.289,0.9206524303131016,0.3270887704319635,1.2742566620480122,-0.1530787337301915,-0.7506122181243984,,1.6712646484375,-0.32586669921875,1.1731109619140625
348,21.339,0.8545265792762624,0.3368603035896933,0.6679186742224068,-0.2717590393435062,-0.7763938308799876,,1.63092041015625,-0.2696685791015625,0.49664306640625
349,21.388,0.2915747594868925,-0.07957587517288733,0.9968291109886205,-0.2727858775963621,-0.7373559045756075,,1.0289306640625,-0.729461669921875,0.81256103515625
350,21.438,0.15039337962147747,-0.5192428618166327,0.9532940587332311,-0.2492565348232819,-0.7089205852222725,,0.85931396484375,-1.2022705078125,0.777496337890625
351,21.488,-0.43039941559121586,-0.7449829580240521,0.6611232082805096,-0.2279344088505354,-0.6950783706693409,,0.264678955078125,-1.4449920654296875,0.49725341796875
352,21.538,-0.11404449514764359,0.1271744447198212,-0.07619232501737144,0.5139384579616544,-0.6097262578429561,,0.4956817626953125,-0.5527496337890625,0.3311614990234375
353,21.588,0.34831586049457763,0.9646626300538053,-0.4201850790294824,0.5264205171589951,-0.5761378748569848,,0.9244537353515624,0.2697296142578125,0.0100860595703125
354,21.638,0.24134313145388514,0.9365074393692622,-0.4453321238176281,0.5787368132047026,-0.4943593831945523,,0.7357025146484375,0.2276153564453125,0.0577392578125
355,21.687,0.2818867360296534,0.36450535206541135,0.12846601340946262,0.5421102992872348,-0.3819011057672216,,0.663787841796875,-0.412109375,0.629486083984375
356,21.787,-0.5237948971332773,-1.759145554651398,0.9266756539747685,0.4717662203562812,-0.5540530758442148,,0.0302581787109375,-2.4931640625,1.3194122314453125
357,21.837,1.2209351941355269,0.579062844817458,-0.08062251597803816,0.5537919431745273,-0.6848112658254106,,1.9057464599609375,-0.0277099609375,0.32293701171875
358,22.056,-6.561797067767934,-3.0598761237136967,-1.8734874693774577,0.3425941839459652,-0.276198312885121,,-6.2855987548828125,-3.962814331054687,-1.544219970703125
359,22.166,-2.951014899924469,1.56264247473972,0.5458127263752822,0.2034737252831788,-0.4774736401588439,,-2.473541259765625,0.7023773193359375,0.7245941162109375
360,22.216,-0.685719690722771,1.0794028040475168,1.4638965759667462,0.1406787880102453,-0.618153772754021,Straight,-0.06756591796875,0.3011627197265625,1.5744781494140625
361,22.266,0.1399443953930608,0.5580353797524822,0.8933664304195031,-0.0526587421519209,-0.6649109512866267,,0.8048553466796875,-0.1878509521484375,0.854034423828125
362,22.315,0.20127762825926487,0.08380066326385982,0.7119546865384687,-0.2443060039812761,-0.6732493492797976,,0.8745269775390625,-0.633209228515625,0.53131103515625
363,22.365,0.12412994726621274,-0.35575467911108094,1.026883312034074,-0.4110659304979525,-0.6695101894525373,,0.79364013671875,-1.03289794921875,0.7215423583984375
364,22.415,-0.23873184879332343,-0.4193422066879371,0.0843811225570637,-0.6205718815192323,-0.6672291632464484,,0.428497314453125,-1.00341796875,-0.3778533935546875
365,22.465,-0.1220099287313886,-0.32741662455260645,1.1354841692329773,-0.6946117468267421,-0.6740118818563886,,0.552001953125,-0.8588409423828125,0.6223602294921875
366,22.515,-0.15334758542339577,0.15587374282626176,0.00854448163845914,-0.0547345102496243,-0.7007719018296458,,0.54742431640625,-0.5564422607421875,-0.0305023193359375
367,22.565,-0.009074649028205761,0.010029585938607921,0.008752588934666017,-0.6575127436772713,-0.5632738677782058,,0.55419921875,-0.612518310546875,-0.5345306396484375
368,22.615,-0.13152024126885875,-0.21666775088563017,-0.3059173105832742,-0.7337848888771288,-0.5532731709563588,,0.4217529296875,-0.7825927734375,-0.9171600341796876
369,22.664,0.04364029033937633,-0.4563931064850063,0.15015001197078504,-0.7440698921056413,-0.5538175954028112,,0.5974578857421875,-1.0126800537109375,-0.469390869140625
370,22.714,-0.10956159102938268,-0.3951618754851738,-0.41082441396446956,-0.7583607583338678,-0.5583836125137577,,0.448822021484375,-0.9359130859375,-1.039947509765625
371,22.764,-0.02106326256661839,0.04099399438141205,0.02217111944585437,-0.4757196620305798,-0.4118408504572434,,0.390777587890625,-0.7605438232421875,-0.4113311767578125
372,22.814,-0.1340426218114859,0.2845918991751504,0.08722939168366739,-0.2930503657546081,-0.4106081735692984,,0.2765655517578125,-0.587188720703125,-0.1799774169921875
373,22.864,-0.14065913925484858,0.3182665080176117,0.07988646091037002,-0.2434528712897659,-0.3939855552704736,,0.253326416015625,-0.5731964111328125,-0.1438751220703125
374,22.914,-0.136038764334304,0.30095178454895277,0.10030385656929797,-0.3161897347626472,-0.394125922537429,,0.258087158203125,-0.570953369140625,-0.1902923583984375
375,22.963,0.0004769924784674001,-0.005357509599585586,-0.005078731754524335,-0.6879727984615851,-0.0644796725605951,,0.0649566650390625,-0.729583740234375,-0.691619873046875
376,23.013,0.045864714583519095,-0.36720717005002157,-0.3246992142846822,-0.6415847634805504,-0.0830873117836684,,0.1289520263671875,-1.1316070556640625,-0.9640655517578124
377,23.063,-0.3748831456830684,-0.4918854219413925,-0.2748302570598342,-0.5682652972727738,-0.0750784581830684,,-0.2998046875,-1.312408447265625,-0.84149169921875
378,23.113,0.0027038938334512097,-0.013271049050477823,-0.002256861626636658,-0.167652046217291,-0.1969268434712363,,0.1996307373046875,-0.9798126220703124,-0.1666259765625
379,23.163,-0.03476194523394449,0.11324773596834437,-0.02347573547361753,0.2029801092977404,-0.2878442206245695,,0.253082275390625,-0.824493408203125,0.1709136962890625
380,23.213,-0.024634588117699696,0.2744570285295421,-0.056730039610522615,0.202420238005295,-0.0875618342114497,,0.06292724609375,-0.701080322265625,0.1449127197265625
381,23.263,-0.0354026070025939,0.3153848066829462,-0.04108282244662076,0.1291712288696986,-0.1106284370807189,,0.075225830078125,-0.6701507568359375,0.0872955322265625
382,23.312,-0.23924655766357572,-0.08717070583460362,-0.5046343194502028,0.1033348630963466,-0.0652658447729507,,-0.173980712890625,-1.0796966552734375,-0.401519775390625
383,23.362,-0.2950724063343232,-0.5759686669288062,-0.44231759248809777,0.1516713620726539,-0.0406320987171357,,-0.2544403076171875,-1.5635833740234375,-0.290771484375
384,23.412,-0.7184175521386402,-0.5904749800000034,-0.19866255151345952,0.287595158219338,-0.0236848861230152,,-0.694732666015625,-1.5479583740234375,0.0888519287109375
385,23.462,-0.4287986288030066,-0.1600649519134909,0.42827686415414207,0.449099955170566,-0.0449637899358191,,-0.3838348388671875,-1.052642822265625,0.876922607421875
386,23.512,-0.0026695211695355048,-0.0063638230233284965,0.0060082558087286575,0.6865014419103402,0.291748813791402,,-0.2944183349609375,-0.7018585205078125,0.6626434326171875
387,23.562,0.015554932859134701,0.08587101813690268,-0.12940056083504414,0.8332253605552127,0.0996613781716347,,-0.0841064453125,-0.4643096923828125,0.699676513671875
388,23.611,-2.03500640452714e-06,-4.806939145174383e-06,6.262256703082336e-06,0.7932468444525977,0.249616495267033,,-0.2496185302734375,-0.589630126953125,0.7681427001953125
389,23.661,-0.016706936903663594,-0.06278590498147185,0.058443621982655736,0.681342208046258,0.1911788052838364,,-0.2078857421875,-0.78125,0.7272186279296875
390,23.711,-0.1679804562067492,-0.2725543521028818,-0.19663082676752175,0.6778036887106363,0.1862370730901258,,-0.354217529296875,-0.99493408203125,0.4693145751953125
391,23.761,0.0240492065680121,-0.24487372887846537,0.010349361021970593,0.6851300570021805,0.1712049682867621,,-0.14715576171875,-0.9625396728515624,0.68536376953125
392,23.811,0.0028355236798650006,-0.09491694855026689,0.02925857727059178,0.2945765990613371,-0.028536546632635,,0.0313720703125,-1.0501556396484375,0.3237152099609375
393,23.861,-0.23500724936726292,0.29671284896628813,-0.0763617592798019,0.249237487981403,-0.6086186995625754,,0.3736114501953125,-0.471710205078125,0.12139892578125
394,23.911,0.28911701928036015,0.6749348927795007,-0.02134219248877492,0.2820264985462052,-0.6253727268133898,,0.91448974609375,-0.0737152099609375,0.19873046875
395,23.96,-0.007269306703204248,0.005582071929706167,-0.0025757316665656615,0.4189764801173771,-0.7635559277969542,,0.75628662109375,-0.58074951171875,0.267974853515625
396,24.01,-0.5205936697243798,-0.8863162012836598,-0.03860019371323592,0.4502086530327824,-0.6866855886696923,,0.1660919189453125,-1.535430908203125,0.2886810302734375
397,24.06,-0.7917296445181325,-0.6097552661412937,-0.23928480633140103,0.4434159713037352,-0.62228079197907,,-0.1694488525390625,-1.3113861083984375,0.107818603515625
398,24.11,-0.07951475044395279,0.15794251527968484,-0.060390816549640514,0.3571427872958616,-0.4255383100142653,,0.3460235595703125,-0.68731689453125,0.2628021240234375
399,24.16,-0.11474175719353985,0.12144482137642343,-0.09573882496605995,0.6190917458623981,-0.5958666351232274,,0.4811248779296875,-0.5092315673828125,0.4014434814453125
400,24.21,-0.11220709290676611,0.13783654741354057,-0.08316534474763648,0.5166108598186894,-0.5718170782583286,,0.4596099853515625,-0.5645904541015625,0.3406524658203125
401,24.259,-0.1094537493587543,0.15264000018107227,-0.09731542025759099,0.5375864837126884,-0.5174127337337543,,0.407958984375,-0.5689239501953125,0.3627166748046875
402,24.309,0.10762264520186171,0.4874224978435113,-0.2512043404317966,0.5679460498204401,-0.4338812610481383,,0.54150390625,-0.2541351318359375,0.260498046875
403,24.359,0.18209341183377842,0.530876319614852,-0.13075111064823608,0.5899123236655829,-0.3308765588693466,,0.512969970703125,-0.231109619140625,0.425933837890625
404,24.409,-1.0918256595212057,-1.406712452044399,-0.21924160494691536,0.5401618245772559,-0.1905805423337057,,-0.9012451171875,-2.23284912109375,0.3110198974609375
405,24.479,0.3371452945295318,-1.516521000402078,0.2881782441796249,0.497882581985863,-0.3397803646501557,,0.6769256591796875,-2.3321685791015625,0.756439208984375
406,24.728,-4.179490332433815,-0.9058067024418932,-2.584205367698276,0.6431033869193667,-0.2789471195431897,,-3.900543212890625,-1.6411895751953125,-1.9666290283203125
407,24.838,-2.491911223612363,2.103386767690671,0.07531699676049208,0.5569119069371173,-0.4320204765420504,Straight,-2.0598907470703125,1.3543243408203125,0.57757568359375
408,24.888,-0.7232871977107359,1.1065479465845407,0.6451848266566815,0.3655951567642718,-0.5091758695857359,,-0.214111328125,0.3054656982421875,0.9598388671875
409,24.937,-0.06149985123402124,0.051628604500627895,-0.059634472191463006,0.7560315982209947,-0.6148750953746462,,0.553375244140625,-0.4645538330078125,0.536590576171875
410,24.987,0.6141414413798395,0.0905504538105496,0.4038421209888825,0.629794008075067,-0.669504188502973,,1.2836456298828125,-0.4864349365234375,0.8716583251953125
411,25.037,0.6418105891629408,0.06093755539523282,-0.014694985679099992,0.5025713333908673,-0.6964615055636217,,1.3382720947265625,-0.5594482421875,0.345947265625
412,25.087,0.3288559230147211,0.28574900782323664,-0.1621633792152113,0.4911930874168774,-0.6942916599930914,,1.0231475830078125,-0.3411407470703125,0.19134521484375
413,25.137,0.43783942699268463,0.1665985943968178,0.8560663415836499,0.5183336924094484,-0.6782189226166904,,1.116058349609375,-0.4618377685546875,1.236968994140625
414,25.187,-0.8478304870979569,-0.43581788387059506,0.0556727312683335,0.4822713992856643,-0.5903231628792069,,-0.25750732421875,-1.142913818359375,0.4449462890625
415,25.236,-0.6835986648944415,-0.7701580138795149,0.4092816804608141,0.5540516414616707,-0.5956775223163165,,-0.087921142578125,-1.4388275146484375,0.85430908203125
416,25.286,-0.47138776917164826,-0.6156947279389297,0.24765377306827707,0.5498702389055444,-0.6075572027653983,,0.13616943359375,-1.27911376953125,0.6844024658203125
417,25.336,-0.01694042055892131,0.03621892029275342,-0.019475233613373333,0.4735858136556861,-0.3808930572776713,,0.36395263671875,-0.77813720703125,0.4184112548828125
418,25.386,0.3124082039596304,0.6663853223466876,-0.16231926751501125,0.4289854917987958,-0.4088594962356821,,0.7212677001953125,-0.1579742431640625,0.2291717529296875
419,25.436,0.429642724749089,1.024230591832468,-0.25907878135123036,0.3932902006563475,-0.3864736082587235,,0.8161163330078125,0.1762542724609375,0.1036529541015625
420,25.486,0.4313356934832407,0.8607261615507754,-0.05074572012226525,0.3981181908140108,-0.3228757322980093,,0.75421142578125,-0.007476806640625,0.3260498046875
421,25.535,-0.08025216032824853,-0.5139491814532352,0.3264083743669054,0.3484417538239938,-0.2336335079844985,,0.15338134765625,-1.4253387451171875,0.6652069091796875
422,25.62,-0.0992478408651083,-1.5154076388448985,0.8616192749063692,0.2726363513717562,-0.4082230605916708,,0.3089752197265625,-2.393707275390625,1.110504150390625
423,25.77,1.7922434867551935,1.7085495089162,0.3501577113037926,0.5362679700610632,-0.3887104927369939,,2.1809539794921875,0.930877685546875,0.8442535400390625
424,25.884,-4.530310365549916,-1.0858137489121398,-2.4880546757524065,0.4180570379189295,-0.3179385393780407,,-4.212371826171875,-1.9470977783203125,-2.0916900634765625
425,25.984,-2.4243208085532557,1.434916932722048,-0.21669973893950162,0.308559985004032,-0.4559370194907557,,-1.9683837890625,0.5883331298828125,0.05792236328125
426,26.034,-1.5868101667818308,0.7821042003107127,0.8723214740344587,0.2784192545472945,-0.5131865095552685,Straight,-1.0736236572265625,-0.042236328125,1.1112823486328125
427,26.084,-1.036634327484146,0.44528424644653886,1.2515999077312654,0.2086249537903476,-0.5869883313903961,,-0.44964599609375,-0.34649658203125,1.420501708984375
428,26.134,-0.22008569254288024,0.3197334025950148,0.6018192786084104,0.042887889899301,-0.6669851066053802,,0.4468994140625,-0.424652099609375,0.6337738037109375
429,26.183,0.4964271555608537,0.44834543075048594,0.972244968481686,-0.1061053124816553,-0.7377799977594588,,1.2342071533203125,-0.2228851318359375,0.9006195068359375
430,26.233,0.4174795193704357,0.4166174131550412,0.955333051244341,-0.2620891066940236,-0.7512979464498768,,1.1687774658203125,-0.22027587890625,0.7823638916015625
431,26.283,0.17320817040822878,0.2875863446097511,0.982411705535233,-0.3995973285645617,-0.7583256430683336,,0.9315338134765624,-0.3099822998046875,0.721923828125
432,26.333,-0.03944106646177459,0.17055290788826005,0.8653572598575934,-0.4236437594557534,-0.7343263203680246,,0.69488525390625,-0.4443206787109375,0.577789306640625
433,26.383,-0.03884177781659992,0.07737246587951996,-0.0785663233108499,0.7124994649481876,-0.3322377739103499,,0.29339599609375,-0.584442138671875,0.5934600830078125
434,26.433,-0.02149878064418287,-0.08232172467100152,0.027831317443446413,0.3202717479523628,0.2401589341995671,,-0.26165771484375,-1.001922607421875,0.3387298583984375
435,26.483,0.05114423270317148,-0.6312934928940038,0.3369639595364665,0.36989211697002,0.292950262976609,,-0.2418060302734375,-1.5196075439453125,0.6906280517578125
436,26.532,0.4920959521299592,-0.41139374083335,0.2658830617105366,0.3522297634916075,0.2915191699033967,,0.2005767822265625,-1.3066558837890625,0.602813720703125
437,26.582,-0.024088633438427487,0.053726987715775665,-0.015171344365281197,0.2717518205163539,-0.39617420472749,,0.3720855712890625,-0.82989501953125,0.234344482421875
438,26.632,-0.2012740667735472,0.14672467329296324,-0.10158596261973457,0.5692377922459516,-0.7482406195079222,,0.546966552734375,-0.3987274169921875,0.27606201171875
439,26.682,0.015009573691035283,0.37778581737915806,0.0065566412810286745,0.580076133169772,-0.7439320766995897,,0.758941650390625,-0.1665496826171875,0.394195556640625
440,26.732,-0.011593947467805732,0.0981184426023709,0.3076991723281169,0.5508105976760812,-0.6857730246162432,,0.6741790771484375,-0.50933837890625,0.708587646484375
441,26.782,-0.6056013334088375,-0.5200594429278736,0.5597440742886718,0.3793142588510217,-0.6319074857525875,,0.02630615234375,-1.2371826171875,0.853729248046875
442,26.831,-1.425744471180019,-0.8346838294030893,-0.20090227586292275,0.147748658454467,-0.587396082508144,,-0.838348388671875,-1.635101318359375,-0.081329345703125
443,26.881,-1.4442202944236338,-0.5940610787731412,-0.36163364107775375,0.0475812434828402,-0.5942294496970713,,-0.8499908447265625,-1.3974456787109375,-0.3233642578125
444,26.931,-1.1610005302525828,-0.33810444907270265,-0.18068771659119995,-0.0289708531974622,-0.6072743339635204,,-0.5537261962890625,-1.13226318359375,-0.203704833984375
445,26.981,0.012542673073803301,0.03836540644564712,0.0036727555976425047,-0.0952952520580139,0.3094634494409908,,-0.2969207763671875,-0.9082183837890624,-0.086944580078125
446,27.031,0.059118481197209194,0.16572514853824827,0.017648677724744752,-0.1058948818870158,0.3343107419393967,,-0.2751922607421875,-0.7714385986328125,-0.0821533203125
447,27.081,0.10015337055326029,0.29285142136243925,0.04175078236929308,-0.1411393061413761,0.3206886488735728,,-0.2205352783203125,-0.6448516845703125,-0.0919342041015625
448,27.131,0.08208792504911261,0.3210293031263418,0.05324538837927395,-0.1636230590960531,0.2445940285647376,,-0.162506103515625,-0.635528564453125,-0.10540771484375
449,27.18,0.018018502744007125,0.04732019801312859,0.014458737350644346,-0.2922146161104204,0.3421762175877571,,-0.32415771484375,-0.8513031005859375,-0.2601165771484375
450,27.23,-0.17813118788346188,-0.08520801722364935,-0.30369259424132233,-0.3822415333307279,0.3508452525462256,,-0.5289764404296875,-0.950531005859375,-0.6616363525390625
451,27.28,-0.134211181832814,-0.05858290262871235,-0.3340925047593078,-0.4349700925493389,0.348424316214061,,-0.482635498046875,-0.9026031494140624,-0.7418060302734375
452,27.33,0.018140041494762782,-0.1078814950203979,-0.08127081847508688,-0.424250176057582,0.3426181909088253,,-0.3244781494140625,-0.9586181640625,-0.4798431396484375
453,27.38,0.006891852004101501,0.0294468680907094,0.00926472641772047,-0.3001212965121474,0.2178903871603515,,-0.21099853515625,-0.9015350341796876,-0.2836456298828125
454,27.43,0.005004095475662995,0.070093023552532,0.037637776747221185,-0.4730800740928802,0.062773870866288,,-0.057769775390625,-0.8091888427734375,-0.43450927734375
455,27.479,-0.002237387238215399,0.13238487346421846,0.0832160967740807,-0.5321841409131206,-0.0143070893866529,,0.0120697021484375,-0.7141571044921875,-0.44891357421875
456,27.529,0.03231048881194379,0.19426591257983383,0.09237991667933731,-0.4294497547578432,0.1485366851010063,,-0.1162261962890625,-0.6988067626953125,-0.332305908203125
457,27.579,0.0328358247980412,0.1976130791792442,-0.01406756669593806,0.0710077334465912,0.1635120943292912,,-0.13067626953125,-0.78643798828125,0.0559844970703125
458,27.629,-0.0047509097222685065,-0.05273355725691853,0.01861441945458181,0.3328610742303846,0.084650335394919,,-0.0894012451171875,-0.9923248291015624,0.35028076171875
459,27.679,0.05390573806645289,-0.46132567718720396,-0.1774777768974461,0.4953087069101363,0.0671961433398904,,-0.0132904052734375,-1.3280792236328125,0.31671142578125
460,27.729,0.2094990939076182,-0.5859145090750546,0.26517075390091693,0.6556035959584892,0.0436055392201182,,0.1658935546875,-1.340301513671875,0.9201507568359376
461,27.779,0.4058554391511908,-0.049519521890513896,0.37986942251033695,0.6670285856465455,-0.0219247122159967,,0.4277801513671875,-0.79437255859375,1.0467376708984375
462,27.828,0.5503049283604694,0.5709150881832596,-0.03538383650988497,0.6604106131567689,-0.0918001741785931,,0.6421051025390625,-0.17681884765625,0.6222381591796875
463,27.878,0.2671717705815341,0.38635548653327,-0.11844059393777862,0.6559362570955635,-0.1068974432856534,,0.3740692138671875,-0.3641357421875,0.5337371826171875
464,27.928,-0.5952302360471444,-0.5655509445381792,-0.24518071804261454,0.6698814297317869,-0.0941926383908944,,-0.50103759765625,-1.304718017578125,0.421722412109375
465,27.978,-0.2424511942580443,-0.16932468381736454,0.0073390820291796555,0.6849900391860947,-0.1440930399611693,,-0.098358154296875,-0.8902740478515625,0.6851806640625
466,28.028,0.4588526919428954,0.5259478215818979,-0.22081796076492177,0.6168396796246658,-0.1844578549321046,,0.643310546875,-0.2476348876953125,0.38543701171875
467,28.078,0.815844410400644,0.8975865507600967,-0.7409186419492746,0.5784267842546132,-0.1752902331540436,,0.9911346435546876,0.094482421875,-0.17144775390625
468,28.127,0.5423602952284432,0.550658365142089,-0.5980920195948886,0.5588957162266753,-0.0977001295762443,,0.6400604248046875,-0.2746124267578125,-0.0418701171875
469,28.227,-0.1925216610228908,-1.3343982400316117,1.1108972556340548,0.6026807744648232,-0.3042159969603908,,0.1116943359375,-2.0945587158203125,1.6850128173828125
470,28.277,1.6863288192408932,1.567669543378079,0.8235852852714416,0.6937489553592221,-0.4730187149387944,,2.1593475341796875,0.9331207275390624,1.434814453125
471,28.387,1.9334259389027464,0.8386708298478704,0.09415155553463872,0.9013295309624028,-0.2791900278941287,,2.212615966796875,0.422760009765625,0.9596405029296876
472,28.506,-3.654525938145783,-1.2459245986262495,-0.452865531867494,0.8961708902000708,0.141799745447967,,-3.79632568359375,-1.685150146484375,0.4342498779296875
473,28.626,-2.226449976324507,1.4786056650758863,0.283232762564974,0.8292397279523555,-0.0160465339416948,Straight,-2.2104034423828125,0.9197845458984376,1.11236572265625
474,28.676,-0.4711258155832919,0.9417363210603616,0.625201495962221,0.6479330639069703,-0.1315719825754794,,-0.3395538330078125,0.1866607666015625,1.2675018310546875
475,28.726,0.8440121659622373,0.651655896921561,-0.239047664646442,0.4354320728120724,-0.2253848066940127,,1.06939697265625,-0.22540283203125,0.1851806640625
476,28.775,1.0320323411401882,0.5420586549056502,0.14601254090962285,0.3572280834980182,-0.2560383375707493,,1.2880706787109375,-0.3608245849609375,0.4913330078125
477,28.825,0.7627451073771457,0.44291920217124636,-0.17072048365565953,0.2389363101444918,-0.2095296728962919,,0.9722747802734376,-0.506561279296875,0.0629119873046875
478,28.875,-0.059071452963752935,0.054400223023816974,0.01745938795040705,-0.3055903746098888,-0.7188004568700029,,0.65972900390625,-0.6075592041015625,-0.1949920654296875
479,28.925,-0.07466531632394213,0.057798107314069314,0.9045020994704356,-0.2605199087365471,-0.6674082362458171,,0.592742919921875,-0.6611785888671875,0.7104949951171875
480,28.975,-0.06368906556942619,0.2616564479891721,-0.0665358314911347,0.2464440264793299,-0.2295978790459887,,0.1659088134765625,-0.681610107421875,0.1733245849609375
481,29.025,-0.2035746432359149,-0.15170912019785554,0.37631007627117946,0.2697445895144497,-0.1457743502671649,,-0.05780029296875,-1.1043548583984375,0.6431732177734375
482,29.074,-0.5480172050058179,-0.8519291822031441,0.4333962693601919,0.2524486685966225,-0.1067482841073803,,-0.4412689208984375,-1.8140106201171875,0.6844024658203125
483,29.124,0.005172066938872205,-0.5288385885410318,0.3413993434439948,0.1989426989641074,-0.1229102084517528,,0.128082275390625,-1.5014190673828125,0.5388336181640625
484,29.174,0.03735102783543193,-0.08728242437165312,0.029116654808312492,0.316447970769927,-0.3761316381801931,,0.413482666015625,-0.9662322998046876,0.32232666015625
485,29.224,-0.13014064278620552,0.14572426633042745,-0.07008433927877311,0.4334179802078366,-0.626982073450268,,0.4968414306640625,-0.55633544921875,0.2675628662109375
486,29.274,-0.1488924342095599,0.1599695905085312,-0.1956457605669114,0.7741593606249201,-0.5076113062798724,,0.3587188720703125,-0.385406494140625,0.4713592529296875
487,29.324,0.03270698329279831,0.20030193987131228,-0.0393318871427443,0.1926833387173984,0.1582105233318608,,-0.1255035400390625,-0.7686004638671875,0.1509246826171875
488,29.374,-0.232373185111405,-0.3177393196638594,0.39959728740907624,0.2829698536391731,0.1696196127401575,,-0.4019927978515625,-1.262969970703125,0.678466796875
489,29.423,-0.1486456208493315,-0.2881188932031129,0.33425018213902064,0.3006801842912922,0.1475885100100435,,-0.296234130859375,-1.2313995361328125,0.6316375732421875
490,29.473,0.0009076448296507986,-0.01464572512405704,0.007710004929061598,0.465828213054649,-0.0547564176703492,,0.0556640625,-0.898193359375,0.47283935546875
491,29.523,-0.010113828587876295,0.023405390210405774,-0.01297697908480444,0.484899925806967,-0.3535128764394388,,0.3433990478515625,-0.7946929931640625,0.44061279296875
492,29.573,-0.008135147449780833,0.010747133055161062,-0.008204379624204616,0.6067957766305283,-0.5155509189341558,,0.507415771484375,-0.6703338623046875,0.5117340087890625
493,29.623,-0.23724853177666572,0.18333845094212053,-0.144783374764604,0.6197563352813941,-0.7125445522844782,,0.4752960205078125,-0.3672943115234375,0.2900543212890625
494,29.673,-0.27418791660844866,0.36589190943326977,-0.3285882538425138,0.6141317833000897,-0.6806362808662612,,0.4064483642578125,-0.2122955322265625,0.121337890625
495,29.722,-0.0520249929236893,0.45990551394494805,-0.2307699890322243,0.4484837263944288,-0.1005937185096268,,0.0485687255859375,-0.429351806640625,0.2154388427734375
496,29.772,-0.3870787867510623,-0.5339395099508377,-0.03187824405906836,0.404871241489113,-0.0558867701494998,,-0.3311920166015625,-1.4468841552734375,0.3723602294921875
497,29.872,0.775105101649092,-1.0916013383705372,0.1507608722422249,0.3429761115190586,-0.1711229256946581,,0.94622802734375,-2.01708984375,0.488677978515625
498,29.922,1.2566165534889195,0.01214332986390343,-0.11530842064534791,0.5037767761330512,-0.2355099113548304,,1.49212646484375,-0.827392578125,0.374298095703125
499,30.041,2.0985508063186087,1.328532674614106,-0.23664485868186957,0.7806209806605318,-0.1852016350876411,,2.28375244140625,0.7143402099609375,0.5304718017578125
500,30.151,-4.540412865816922,-1.1947191086917883,-2.432204272783922,0.811325030269916,0.283790625394015,,-4.8242034912109375,-1.755279541015625,-1.65423583984375
501,30.271,-2.0001640454677223,2.17120083890927,0.08055407992359909,0.7588723463152558,0.0648383959385275,,-2.06500244140625,1.521331787109375,0.83782958984375
502,30.321,-0.466466322345711,0.8082262107038649,0.5547793168359806,0.6549578580826245,-0.0816549209785235,Straight,-0.3848114013671875,0.055084228515625,1.207550048828125
503,30.37,0.697178843556483,0.4107092684442163,0.24406778423320585,0.4967481848065823,-0.211451527537267,,0.90863037109375,-0.43756103515625,0.729583740234375
504,30.42,1.0016626441528662,0.3664245132960663,0.3103643021784943,0.3118091199210501,-0.2758336937377589,,1.277496337890625,-0.5468597412109375,0.610076904296875
505,30.47,1.0942661115578338,0.5723191401933897,0.6367049478274773,0.0885785564413397,-0.3324459245749787,,1.4267120361328125,-0.367095947265625,0.720245361328125
506,30.52,0.7634692453324479,0.6923636947257372,-0.30549963850691636,-0.0890611042622952,-0.3494305349409897,,1.1128997802734375,-0.240875244140625,-0.388946533203125
507,30.57,0.471677949469798,0.4892206369144474,0.3742544493842534,-0.0639564070600106,-0.2924974655692645,,0.7641754150390625,-0.465087890625,0.3130950927734375
508,30.62,-0.08296115309757018,0.15931010361856557,-0.09198831414143516,0.5000431455358878,-0.4111014118866327,,0.3281402587890625,-0.630126953125,0.3638458251953125
509,30.67,-0.2239255271603649,-0.6410985463875374,0.0007271569613110929,0.5340548078752637,-0.3475217185666149,,0.12359619140625,-1.4338531494140625,0.501495361328125
510,30.749,0.7200637555745232,-1.1540163824737688,-0.4931073225349281,0.5256415267223359,-0.3676895403239143,,1.0877532958984375,-1.94512939453125,-0.0042877197265625
511,30.799,0.3924392305893189,-0.2706979859442843,0.02254738940862866,0.5730470373773157,-0.3591629422622436,,0.7516021728515625,-1.0355377197265625,0.5573577880859375
512,30.849,0.2526238616347955,0.6649240417867053,-0.25109804875816577,0.5551756796981354,-0.379379922544892,,0.6320037841796875,-0.1046295166015625,0.2625732421875
513,30.899,-0.15540816679175368,1.0937933070796393,-0.8071512249076493,0.5100052191888006,-0.3775151003855037,,0.22210693359375,0.297271728515625,-0.3348846435546875
514,30.949,-0.4424324936013894,0.8844180152208448,-0.4720497057668305,0.4817548367090327,-0.3057595199685769,,-0.1366729736328125,0.050079345703125,-0.01336669921875
515,30.998,-0.2564502914567215,0.9907145455832728,-0.42244331987805095,0.4831738670455225,-0.2165027816910965,,-0.039947509765625,0.135955810546875,0.0492706298828125
516,31.048,0.16811656242406148,0.17740974632038697,-0.057765121047206325,0.3096045024593885,0.6693983007053115,,-0.50128173828125,-0.52899169921875,0.1722412109375
517,31.098,-0.6723515845328831,-1.369861800659995,0.2956301400378734,0.3320111677486956,0.7575495385139919,,-1.429901123046875,-1.9856109619140625,0.512359619140625
518,31.203,-1.0928853039653024,-1.4524345185545957,0.335636550845679,0.2915907886049764,0.6984660143940726,,-1.791351318359375,-2.1369781494140625,0.5443115234375
519,31.253,-0.03598885461572299,-0.02109245190259723,0.4099387456241913,0.3126424052528463,0.620352698118652,,-0.656341552734375,-0.7660980224609375,0.6551513671875
520,31.303,0.5872887416065123,0.6958829462621114,0.2303076431960869,0.2957168808823679,0.5510186000049498,,0.0362701416015625,-0.101287841796875,0.477081298828125
521,31.352,0.6193927974599996,0.9950801196887497,-0.1689635373134074,0.3176485156973274,0.4877552242178122,,0.1316375732421875,0.1673126220703125,0.10833740234375
522,31.402,0.6072045545438449,1.0291484030422269,-0.1315727074139293,0.3518962949763966,0.44402706430947,,0.163177490234375,0.1904449462890625,0.1837310791015625
523,31.452,-0.5010435063213271,0.4235830681304952,-0.2840471206780395,0.5569493760057641,-0.7008115727275771,,0.19976806640625,-0.16888427734375,0.113250732421875
524,31.502,-0.3446221649860034,-0.7435436479971685,-0.21083408849657198,0.5985792674545447,-0.7117791474078784,,0.367156982421875,-1.30621337890625,0.2096099853515625
525,31.567,-0.49519450250903174,-1.3906421023917606,0.13489608153530724,0.6350974488115531,-0.7202768999699692,,0.2250823974609375,-1.9264678955078125,0.5754547119140625
526,31.617,-0.452014269004672,-0.47121405310777786,0.03969006969193761,0.5912574361522048,-0.7067597524031095,,0.2547454833984375,-1.0417633056640625,0.457977294921875
527,31.666,-0.36967961172861596,0.4080681937576468,0.017313231778085546,-0.0423891655456321,-0.6710559545020535,,0.3013763427734375,-0.332672119140625,-0.0141143798828125
528,31.716,-0.6236173698882991,0.845243156415334,0.12245855406256313,0.0029841148625107,-0.6060697624664241,,-0.017547607421875,0.049835205078125,0.1248321533203125
529,31.766,-0.5603347059292777,0.9135570165712728,0.4672172951505322,0.0416319543064414,-0.5439467664761527,,-0.016387939453125,0.075164794921875,0.5021514892578125
530,31.816,-0.6756277456189563,0.6434692614712796,0.44642523413409996,0.0157710727491986,-0.4498739614392689,,-0.2257537841796875,-0.24951171875,0.46051025390625
531,31.866,-0.9999083949605808,-0.15492199264116124,0.7479180454231779,-0.0117457928998064,-0.3938445521871433,,-0.6060638427734375,-1.07403564453125,0.73712158203125
532,31.965,-2.0781220683434487,-1.0826761064435622,0.7753767498256483,0.0395819507305128,-0.3951691874840736,,-1.682952880859375,-2.0005645751953125,0.811737060546875
533,32.015,-1.7137665890245506,-0.4751002276414842,0.9482594237683803,0.0210594098373606,-0.4392609737901755,,-1.274505615234375,-1.373260498046875,0.9671783447265624
534,32.065,0.001719907115009578,0.0017502252542712649,-0.0011949773484520865,0.5638656102474722,0.6301531346540721,,-0.6284332275390625,-0.6395111083984375,0.4366302490234375
535,32.115,0.5160450243441929,0.5730136285041046,-0.08412816199636874,0.6083526138469013,0.5309376024691929,,-0.014892578125,-0.09954833984375,0.431396484375
536,32.165,0.8509160290301789,0.605877553320731,-0.18281723893783675,0.6307434729472214,0.4651128063739288,,0.38580322265625,-0.0810699462890625,0.37554931640625
537,32.215,1.193124508470082,0.6899009833176721,-0.4597414942074841,0.6137497361292721,0.4087769742903944,,0.7843475341796875,-0.0306243896484375,0.1003875732421875
538,32.265,0.0755403657640481,-0.8745250946706017,-0.4642798277991289,0.6256469617056597,0.4314363618577981,,-0.35589599609375,-1.5782928466796875,0.1001434326171875
539,32.314,-0.3036476932311824,-1.5114280700080396,0.0026083192621314533,0.6652045352928231,0.3611777462219426,,-0.664825439453125,-2.2076873779296875,0.6229095458984375
540,32.364,-0.013941488690172602,0.17595324882074914,-0.05933075815479699,0.3195201530242785,-0.0748698334167351,,0.0609283447265625,-0.7689666748046875,0.2592926025390625
541,32.414,0.36791183500748437,1.135665141393173,-0.06690072297518801,0.3096879271738744,-0.1836781308128281,,0.5515899658203125,0.2010040283203125,0.237518310546875
542,32.464,0.9430473481241346,1.809956009182904,-0.17983745707835758,0.286502740305772,-0.2293311919149279,,1.1723785400390625,0.877410888671875,0.099029541015625
543,32.514,-0.006486351353336861,0.00609592903649403,-0.003810086186413153,0.5300119980356247,-0.6699079822127119,,0.663421630859375,-0.6234893798828125,0.3896942138671875
544,32.594,0.14677129381145715,-1.6202010422326074,1.0638913510147554,0.5814837546612006,-0.6642028272822929,,0.81097412109375,-2.2283782958984375,1.4985809326171875
545,32.942,-2.980929791480871,1.0065953952142503,0.0789056312761485,0.441108156714437,-0.8594240541761831,Straight,-2.1215057373046875,0.547760009765625,0.3044281005859375
546,32.992,-0.42036615434116,0.7142574135507719,0.8408031030242007,0.4362113333399796,-0.94978509965366,,0.5294189453125,0.4326934814453125,0.977294921875
547,33.042,0.29093260229906737,0.16585415404399725,-0.10550181308802642,0.1551836114058814,-0.9756384426228076,,1.266571044921875,-0.050872802734375,-0.0714569091796875
548,33.092,0.48972118162736067,0.035350345780603004,0.7762884787498205,0.0268516460526737,-0.9810277197398268,,1.4707489013671875,-0.158447265625,0.781494140625
549,33.142,0.5960959857324234,0.1559922230172678,0.3241149319486094,-0.1577944354315809,-0.9774818951269516,,1.573577880859375,-0.0523834228515625,0.2908172607421875
550,33.192,-0.11625735865739217,0.14016115575619048,-0.0169707054984891,0.1202020518934021,-0.6356665383448922,,0.5194091796875,-0.6262054443359375,0.0758209228515625
551,33.341,-0.2899243216989926,-1.277641117958592,0.5951066212496857,0.1515467613920028,-0.6615216117380551,,0.3715972900390625,-2.0189056396484375,0.7087554931640625
552,33.391,0.08631435591317194,-0.18852227133070742,0.24137621646520455,0.2087951206840528,-0.7104233149852656,,0.7967376708984375,-0.8767852783203125,0.3883209228515625
553,33.441,-0.23267985555240855,0.405712855147939,-0.5201840904891754,0.1441890491490363,-0.7270646211774086,,0.494384765625,-0.273681640625,-0.4211883544921875
554,33.491,-0.25608030990426667,0.9192469108165655,-0.16006978482565842,0.1552624763115546,-0.7399670286542667,,0.48388671875,0.2547607421875,-0.055633544921875
555,33.541,-0.506213688693237,1.0521240929852569,0.1239118618216716,0.1836974177560519,-0.7262912033416745,,0.2200775146484375,0.376434326171875,0.25018310546875
556,33.59,-0.4890618192545806,0.9022303554548319,0.2315880654274063,0.2191550574785861,-0.6916832792155181,,0.2026214599609375,0.1975860595703125,0.389862060546875
557,33.64,0.014327780158647697,0.2534085184077969,-0.1305223597013005,0.4578971960903391,0.0502011932445852,,-0.0358734130859375,-0.6344757080078125,0.3267974853515625
558,33.76,-0.8622557519604107,-1.101382131083394,0.4819268019331197,0.3277698834223366,-0.0051237939525982,,-0.8571319580078125,-2.0461273193359375,0.8096923828125
559,33.81,-0.4659515325909196,0.03128915524228881,0.4088135430711718,0.3420655742129246,-0.1090179388409196,,-0.35693359375,-0.9027862548828124,0.74884033203125
560,33.86,-0.1938023520539416,0.751092960280014,0.4101417229307368,0.3400934590906542,-0.2166600180695666,,0.022857666015625,-0.166961669921875,0.742156982421875
561,33.909,-0.14679190345699883,1.021155210627999,-0.1055040414526277,0.3547632100721641,-0.2951073331444989,,0.1483154296875,0.127838134765625,0.23345947265625
562,33.959,-0.12913935312316588,1.1105904050880788,-0.006598740029556405,0.4230868451061399,-0.3564190162091034,,0.2272796630859375,0.264007568359375,0.388702392578125
563,34.009,0.10652323207390457,1.1451600575395247,-0.018301844609911744,0.4652354769610224,-0.3754256204651579,,0.4819488525390625,0.3247222900390625,0.41290283203125
564,34.059,0.15626566298823402,0.42377234160165433,-0.01123521828447066,0.5230604611268765,-0.3196101915039535,,0.4758758544921875,-0.383819580078125,0.4843902587890625
565,34.159,-0.4510602919007026,-1.2175104404469508,0.6163298752177728,0.4264682664660165,-0.3592481581116401,,-0.0918121337890625,-2.0616302490234375,1.0143280029296875
566,34.208,-0.03411047187134991,0.05705552465199959,-0.024833150789723868,0.3990829066103027,-0.4806894513635374,,0.4465789794921875,-0.746978759765625,0.3251190185546875
567,34.258,-0.07413050370661634,0.8485618688271009,-0.008775381080135036,0.3974713754547936,-0.5589785261675538,,0.4848480224609375,0.0876922607421875,0.32080078125
568,34.308,0.20533921758669915,1.3871344403555836,-0.09902058465481195,0.3797058386123743,-0.5781233068273633,,0.7834625244140625,0.632293701171875,0.2108001708984375
569,34.358,-0.10988507450510587,1.2773725980473332,-0.3251352439172427,0.4144751936423721,-0.5152348059504184,,0.4053497314453125,0.497406005859375,0.03009033203125
570,34.408,0.011655542824454412,-0.06535310453046028,0.48228463871240906,0.370210697232177,-0.4381735587380456,,0.4498291015625,-0.9003753662109375,0.8150634765625
571,34.498,0.2074436357443259,-1.7581877601068516,0.9112124307558144,0.3826080976086959,-0.6262965986306741,,0.833740234375,-2.47845458984375,1.2094879150390625
572,34.547,1.2638061657040682,0.9735219337816585,0.5167203036053585,0.4851332708369928,-0.7598449573428068,,2.023651123046875,0.4050445556640625,0.8321075439453125
573,34.856,-3.0700301393360294,1.8636908296406525,-0.8641238090402609,0.3868995449781831,-0.876502917656342,Straight,-2.1935272216796875,1.4197845458984375,-0.6778717041015625
574,34.906,-0.7488159719886688,0.4276233158343132,0.7792811146088292,0.3223410954291831,-0.9169678274574188,,0.16815185546875,0.049957275390625,0.9078826904296876
575,34.956,-0.0510620977736822,-0.03731295240746224,0.803484069014202,0.0903777399987953,-0.9463562872268072,,0.895294189453125,-0.3591156005859375,0.8326873779296875
576,35.006,0.7473169989877954,-0.2728252719513077,0.7714881874297128,-0.0892205612705937,-0.9681371025747046,,1.7154541015625,-0.522247314453125,0.7491455078125
577,35.056,0.5720392674929388,-0.16603469337971793,0.07036366645600035,-0.3048631333208402,-0.9708684473508112,,1.54290771484375,-0.3942413330078125,-0.002685546875
578,35.106,0.20166328387049992,-0.0754484637724675,-0.519342712356256,-0.4033736230107749,-0.9474303440591876,,1.1490936279296875,-0.36822509765625,-0.648406982421875
579,35.156,-0.06452299739838918,0.06763168986656198,-0.0697612348690635,0.7179804644424076,-0.5532009759140142,,0.488677978515625,-0.5122222900390625,0.528350830078125
580,35.205,-0.4039865523411867,-0.36730838341414607,0.4264726829936655,0.7484356397507478,-0.4718576460911867,,0.06787109375,-0.9520416259765624,1.0863494873046875
581,35.255,-0.5549907518020618,-1.1462150766385877,0.07503854607023885,0.7454977636321227,-0.4489574266067493,,-0.1060333251953125,-1.7417755126953125,0.741180419921875
582,35.34,-0.10397631862081391,-1.472130533318498,-0.3756726347115631,0.770192095982351,-0.4756041262380014,,0.3716278076171875,-2.0331878662109375,0.3018341064453125
583,35.39,0.28226234617120033,-0.3868084802838422,-0.1721489503797431,0.7618592009115345,-0.4668221264850496,,0.74908447265625,-0.9596405029296876,0.5016021728515625
584,35.44,-0.03442999584514572,0.40067622512707524,-0.6092917773685719,0.732367754690285,-0.4433502839310832,,0.4089202880859375,-0.20965576171875,0.0471649169921875
585,35.49,-0.0998776491579274,0.8831299891796349,-0.6686440718928737,0.7224000597645676,-0.4022915895876149,,0.3024139404296875,0.2500762939453125,-0.0072784423828125
586,35.539,-0.3434006057123721,0.8490354641173737,-0.6510490882333531,0.734660986828392,-0.3374191603998721,,-0.0059814453125,0.21038818359375,0.04052734375
587,35.589,-0.23194196710851261,0.6269250198132743,-0.4385071783462845,0.7478628481494315,-0.2846763421085126,,0.052734375,-0.00946044921875,0.278411865234375
588,35.639,-0.12465466910537959,0.3975032448750697,-0.21995324518114573,0.4841588550995826,-0.2646082823866296,,0.13995361328125,-0.4462890625,0.2469482421875
589,35.689,-0.26254240585303656,-0.9914199942792955,0.33037264687750034,0.5232389054878799,-0.1971890122983491,,-0.0653533935546875,-1.826873779296875,0.8433380126953125
590,35.784,-1.2013611984301504,-1.3216135558192668,0.5128548013271162,0.4556083722343442,-0.194326896672338,,-1.0070343017578125,-2.19482421875,0.95977783203125
591,35.833,0.1101922881105325,0.23511322085872532,-0.06280810243521964,0.2580893962925892,0.41248415822772,,-0.3022918701171875,-0.644989013671875,0.17230224609375
592,35.883,0.4394949414268619,0.9743967874924487,0.427977576257936,0.2307345070436413,0.2999685742393619,,0.1395263671875,0.0461883544921875,0.6480865478515625
593,35.933,0.4600488827593357,1.1628528490005015,0.33308015636374527,0.3149236911760619,0.2182581112749607,,0.241790771484375,0.2366180419921875,0.640411376953125
594,35.983,0.5009087312190221,1.1555650866878966,-0.07104585611570507,0.3691066585689809,0.1645439851252721,,0.33636474609375,0.2388458251953125,0.29302978515625
595,36.033,0.5769973213906476,0.8531821811998157,-0.3869461380277201,0.413467367530504,0.1444259102578352,,0.4325714111328125,-0.04779052734375,0.022186279296875
596,36.083,0.7493773906908412,-0.1663370009125108,0.15110559558093228,0.518527611203413,0.1641723125658412,,0.585205078125,-1.009796142578125,0.66259765625
597,36.182,-0.7188584191684491,-1.2278361139233316,0.5798941260609799,0.5468443191870069,0.1981948034878009,,-0.91705322265625,-2.0484619140625,1.1158905029296875
598,36.232,-0.1439140020282514,0.26524908762151556,-0.13934807713678854,0.4650753888097159,-0.4329612432391889,,0.2890472412109375,-0.532745361328125,0.279876708984375
599,36.282,-0.07703726453276982,0.8175106419200032,0.09890891162564575,0.4184173082103468,-0.5373033778140198,,0.46026611328125,0.0514984130859375,0.4517974853515625
600,36.332,0.0016905640876424544,1.155565942823388,0.19548582185873914,0.4505296960696306,-0.594912829467045,,0.5966033935546875,0.4379730224609375,0.5576171875
601,36.382,0.06815951072192616,1.211503073600349,-0.09147428806828867,0.4368276564285303,-0.6000228623249488,,0.668182373046875,0.49188232421875,0.2579803466796875
602,36.432,0.32569068447189653,0.7773298073285081,0.007449326107877907,0.4432798999169488,-0.5504384659187285,,0.876129150390625,0.028961181640625,0.377532958984375
603,36.481,-0.15440639952376056,-0.5085036984003266,0.08347137170022889,0.4188115739167423,-0.4455288360471981,,0.2911224365234375,-1.32147216796875,0.4584197998046875
604,36.586,-0.14292909057052705,-1.4385458875740773,0.24747276543991786,0.4373724865632686,-0.4938354626408395,,0.3509063720703125,-2.22052001953125,0.6277923583984375
605,36.636,-0.16412916332516225,-0.5093454890751419,-0.16101017431806042,0.6315692006123204,-0.5938776984814123,,0.42974853515625,-1.1331329345703125,0.3471221923828125
606,36.686,0.5867880766619569,0.23523415667780717,-0.16268679704829292,0.864899135186428,-0.6388588959942931,,1.22564697265625,-0.1509246826171875,0.5027008056640625
607,36.985,-2.7977369541203676,1.9551060761516361,-1.1171022047219503,0.8226775301930733,-0.8055189365422425,Straight,-1.992218017578125,1.61822509765625,-0.629608154296875
608,37.035,-1.2498960540769217,0.36909123082633943,0.9710376725087073,0.7121154567495432,-0.9006376312253592,,-0.3492584228515625,0.063995361328125,1.2805023193359375
609,37.085,-0.11241302492665262,0.20318795411240387,0.8805590857309196,0.5238345820608942,-0.9593063354735276,,0.846893310546875,-0.0373382568359375,1.028472900390625
610,37.134,0.917583310264269,-0.03510461798153486,1.2705161853514337,0.4098151826294107,-0.985401308876356,,1.902984619140625,-0.190399169921875,1.3402862548828125
611,37.209,1.0839326861174787,0.11687116169927617,-0.2813286481711384,0.1103629204629636,-0.9896451947418962,,2.073577880859375,-0.025787353515625,-0.2654876708984375
612,37.259,-1.9747980429484913,-1.132221994580872,-1.0174342615813365,0.1207779292869259,-0.9336298300578662,,-1.041168212890625,-1.4878387451171875,-0.9741668701171876
613,37.309,-1.4561191362395882,-1.4507011949831177,1.342797248999501,0.3879375102543432,-0.9321475786224006,,-0.5239715576171875,-1.784423828125,1.4832611083984375
614,37.359,-0.022318197856768307,-0.05641233946930724,0.037556399152744335,0.5541706446733009,0.3127953275338567,,-0.335113525390625,-0.8470458984375,0.5639190673828125
615,37.409,-0.131473095835355,0.15512716833208018,-0.22311365731569455,0.8210472099508509,-0.43551972669473,,0.304046630859375,-0.3587493896484375,0.5159759521484375
616,37.458,-0.23398732301266428,0.13136472029419077,-0.07732694664818385,0.848164779215812,-0.4971098816064143,,0.26312255859375,-0.328277587890625,0.6586151123046875
617,37.508,0.0019648169272843408,-0.23684885669258304,-0.032126789927898525,0.831401205647357,-0.5274999047524032,,0.5294647216796875,-0.70892333984375,0.6741943359375
618,37.558,-0.16000361760485726,-0.80290600691247,-0.1386049852200476,0.8193151667454666,-0.5393981488548573,,0.37939453125,-1.2856903076171875,0.551300048828125
619,37.608,-0.47031671926472707,-0.7902922408139381,0.025599149834864554,0.7982541651458461,-0.5642956011006646,,0.0939788818359375,-1.2875518798828125,0.6846160888671875
620,37.658,-0.004227210745898435,0.006871329537450954,-0.0031033870852242296,0.4116094164845078,-0.489044715628711,,0.4848175048828125,-0.7880706787109375,0.355926513671875
621,37.708,-0.12298576629461572,0.22668705313581394,-0.08873721747304114,0.3645189987266723,-0.4509276608258657,,0.32794189453125,-0.604461669921875,0.2366180419921875
622,37.757,-0.1046033610245713,0.3449131174027822,-0.2706489883344637,0.6173219446041639,-0.2320752848526963,,0.127471923828125,-0.420318603515625,0.3298187255859375
623,37.807,-0.30270720792174377,0.4737440998111305,-0.05143371720013916,0.1079343107030473,-0.5361971981561188,,0.233489990234375,-0.36541748046875,0.0396728515625
624,37.857,-0.12370080253202448,0.2617015033688531,0.09467334541236605,-0.3401848717369296,-0.4061715056570245,,0.282470703125,-0.59759521484375,-0.2161865234375
625,37.907,-0.4433995943584777,-0.28528126169685775,0.3081792500812641,-0.2861291374070056,-0.3220311861553527,,-0.121368408203125,-1.1924285888671875,0.03729248046875
626,37.957,-0.5375074458090598,-0.7038352434057991,0.6481897756787519,-0.2258021154564526,-0.2522138667074973,,-0.2852935791015625,-1.646514892578125,0.4296875
627,38.007,-0.5725321189621699,-0.596841303946713,0.5543588713927626,-0.2351512167272154,-0.2087168113449824,,-0.3638153076171875,-1.547393798828125,0.3243865966796875
628,38.057,-0.004183764368591997,-0.03526444150560304,0.005351769391458566,0.1500430537422051,0.1164979983267205,,-0.1206817626953125,-1.0172119140625,0.1543731689453125
629,38.106,-0.08935321551641459,0.4124167824818634,-0.04749212375002741,0.1143996340263916,-0.2104164479382896,,0.121063232421875,-0.55877685546875,0.0643463134765625
630,38.156,-0.0916948768969939,0.5046838399066519,0.01771469722119487,-0.0350789805218639,-0.1786547157641814,,0.0869598388671875,-0.4786224365234375,-0.0167999267578125
631,38.206,-0.006469940840056601,0.2005373751275864,-0.017808694983309226,0.0884567538206766,-0.0321199652541191,,0.0256500244140625,-0.7950286865234375,0.0706024169921875
632,38.256,-0.4737636717200018,-0.36755822826718787,0.10190389920328036,0.1659925410306408,-0.0125820310950018,,-0.461181640625,-1.353607177734375,0.26788330078125
633,38.306,-0.990356818102276,-0.7383703229083179,0.25966777666153934,0.2680554778652464,-0.041138068102276,,-0.94921875,-1.700958251953125,0.527496337890625
634,38.356,-0.804518838544958,-0.3892706215393966,0.07496147993676994,0.329216924735796,-0.094832559248083,,-0.709686279296875,-1.3292694091796875,0.4026947021484375
635,38.405,-1.5894781961157556,-0.19242910158495807,0.144992227448546,0.4572232121313214,-0.1099860086157556,,-1.4794921875,-1.076385498046875,0.5994415283203125
636,38.455,-0.9310495141937224,0.21624136068041322,0.4527091482499557,0.5462367888387125,-0.2111245874359099,,-0.7199249267578125,-0.602508544921875,0.98663330078125
637,38.505,-0.5735826994945354,0.6686697443223202,-0.19014414731286944,0.4205241911337014,-0.2973070647289105,,-0.276275634765625,-0.1975860595703125,0.21136474609375
638,38.555,-0.050215851368614506,0.5758614380456824,-0.5535364858537901,0.6929939348794665,-0.062743317188927,,0.0125274658203125,-0.1436614990234375,0.138092041015625
639,38.605,-0.05357496434750769,0.16242872431889588,-0.16660215373742537,0.7160181317730194,-0.2243818491131327,,0.170806884765625,-0.517852783203125,0.531158447265625
640,38.655,-0.6287803285750001,-0.5370300241578714,-0.676204832676196,0.6686173687476482,-0.2562217348250001,,-0.37255859375,-1.2558135986328125,-0.0299072265625
641,38.704,-1.1172930518790507,-0.7202581621159081,-0.4923458334573011,0.6776373649576707,-0.3436266700431132,,-0.7736663818359375,-1.4108734130859375,0.1440277099609375
642,38.754,0.0043948150943778075,0.027958494772900244,-0.007170197958614621,0.248419339084447,0.1505282379459403,,-0.1461334228515625,-0.929656982421875,0.2384185791015625
643,38.804,-0.040805734586372294,0.24497204085162938,0.03211444445898126,-0.1299821647688496,-0.1629523410316848,,0.1221466064453125,-0.7332916259765625,-0.09613037109375
644,38.854,0.007649661128671492,-0.02336790651285947,0.001815578319236455,0.0774619270988977,-0.310267208988516,,0.3179168701171875,-0.971160888671875,0.0754547119140625
645,38.904,0.0578232390419513,-0.08599155222059951,0.1305429093476049,0.1370191796962791,-0.2855758088096112,,0.3433990478515625,-1.035308837890625,0.2618560791015625
646,38.954,-0.007532698997267898,0.07426585550987674,0.0035925748653524645,-0.048318015359378,-0.1007944177472679,,0.09326171875,-0.9194793701171876,-0.0444793701171875
647,39.004,-0.18162029527175427,0.3013415301511366,-0.008087480982992182,0.0268285950420279,-0.5160624339436293,,0.334442138671875,-0.554901123046875,0.014892578125
648,39.053,-0.2440761286800378,0.25797406285674773,-0.1826107394999738,0.5777626214049074,-0.6112025935237878,,0.36712646484375,-0.388031005859375,0.2746734619140625
649,39.103,0.0217942613268976,-0.05305534904640585,0.039472424807715956,0.5969073526483423,-0.3130140882824774,,0.334808349609375,-0.8150482177734375,0.60638427734375
650,39.203,-0.8500031937291104,-1.7759525096566624,0.622887610087975,0.7099129488347666,-0.4382752884556729,,-0.4117279052734375,-2.40899658203125,1.260986328125
651,39.253,0.67418946256158,0.31468753324893306,-1.1055873978891242,0.7228649692186274,-0.57751952181342,,1.251708984375,-0.249420166015625,-0.5154571533203125
652,39.382,2.150488043699831,1.9548153017686816,0.23521831398817739,0.9109944728267356,-0.3232973566907939,,2.473785400390625,1.564544677734375,1.0972900390625
653,39.602,-4.084460557267059,1.4828128221482986,-0.40896578012096474,0.8445862044131011,-0.6167939312904963,Straight,-3.4676666259765625,1.061370849609375,0.255828857421875
654,39.652,0.11950181676595639,1.4128972018522017,-0.1277776736369599,0.7399156759801894,-0.7188160543277936,,0.83831787109375,0.9452362060546876,0.3866119384765625
655,39.701,0.8180606160531486,0.5757697263615771,-0.10401549333962412,0.5852104800464177,-0.7829220499624764,,1.600982666015625,0.0713043212890625,0.2600555419921875
656,39.751,1.1036531180070197,0.4963157514353679,0.6682138124423984,0.4257977768187985,-0.8175352364851678,,1.9211883544921875,-0.024749755859375,0.913421630859375
657,39.801,0.5044971934783323,0.31379286671422835,-0.8450858312612766,0.1764755320575416,-0.8082927235138552,,1.3127899169921875,-0.2657470703125,-0.741180419921875
658,39.851,-0.8421270315710708,-0.7567680120296841,0.46786345877137014,0.3014882921916257,-0.7354375784460708,,-0.106689453125,-1.40283203125,0.672149658203125
659,39.901,-0.41365254276188046,-0.9479218833620221,1.1632987475447276,0.416330864739329,-0.6975270544806305,,0.28387451171875,-1.59942626953125,1.4616241455078125
660,39.951,-0.6065980835405551,-0.6094600536688873,-0.12887601323534165,0.3698906238332731,-0.6896516724077426,,0.0830535888671875,-1.2822418212890625,0.13897705078125
661,40.0,-0.17004294239087914,0.15373256310484773,-0.07196351665461104,0.423957471451989,-0.7077321513752541,,0.537689208984375,-0.486114501953125,0.2275543212890625
662,40.05,-0.20852446830542093,0.18899881250789619,-0.1685791930721794,0.6656427421272337,-0.6356332329538584,,0.4271087646484375,-0.387115478515625,0.3452911376953125
663,40.1,-0.2532610697282792,0.3407095524856053,-0.17518206726638091,0.4572654645917747,-0.5514635843767167,,0.2982025146484375,-0.4011688232421875,0.206268310546875
664,40.15,-0.23741041797854323,0.26704809292439124,-0.13019975748722745,0.4382398101351895,-0.6242664970801057,,0.3868560791015625,-0.435150146484375,0.212158203125
665,40.2,-0.050749015650353724,0.06674493993235942,0.002867444450657418,-0.0429216347664313,-0.6049024580331662,,0.5541534423828125,-0.72882080078125,-0.03131103515625
666,40.25,-0.032574334229761526,-0.3213005931328635,0.33786239996847345,0.0449004190263192,-0.5118834162610115,,0.47930908203125,-1.1794891357421875,0.376434326171875
667,40.3,0.1604677662806822,-0.4243981997912024,0.45884214208669516,0.1125177332367431,-0.4504941477818178,,0.6109619140625,-1.3115081787109375,0.559295654296875
668,40.349,0.4468490837114285,-0.138782613965304,0.23530644154029884,0.1181387313688974,-0.4023635627729465,,0.849212646484375,-1.0478515625,0.3434600830078125
669,40.399,0.05095160120715958,-0.05969297168100718,0.020834669190485766,0.3295348677822349,-0.6274846780897154,,0.678436279296875,-0.794830322265625,0.2774200439453125
670,40.449,-0.013453300478680097,0.1092006595031697,-0.04914270101815932,0.4103813736147906,-0.1116436080958676,,0.0981903076171875,-0.7970123291015625,0.358673095703125
671,40.499,-0.05980904752089619,0.3989446292059785,-0.22344816858734823,0.4886685900227006,-0.1296943014271462,,0.06988525390625,-0.466156005859375,0.2610931396484375
672,40.549,0.1727036943064551,0.33572501341609595,-0.06195207254836599,0.1814683637332602,0.4514054765330176,,-0.2787017822265625,-0.541778564453125,0.0999755859375
673,40.599,-0.026955256349217895,0.42844490580451067,-0.3082579855215454,0.5840272554605889,-0.0510031079117179,,0.0240478515625,-0.382232666015625,0.2750091552734375
674,40.648,-0.1396572793937822,0.28056939794953795,-0.1998715039287874,0.5802089522497239,-0.3757107461906572,,0.236053466796875,-0.4742279052734375,0.33782958984375
675,40.698,-0.4408548775369814,-0.8574630227530868,-0.16017286263239083,0.5669412833575542,-0.2420633736307314,,-0.19879150390625,-1.6567230224609375,0.3899078369140625
676,40.773,-1.529955520644652,-1.3682764119709443,0.057152867539056074,0.478953363539388,-0.2800775909571521,,-1.2498779296875,-2.2109832763671875,0.516937255859375
677,40.823,-0.06703912301871862,0.14441366233898667,0.016950315448670913,-0.1165731125392344,-0.4186931757530936,,0.351654052734375,-0.7575225830078125,-0.0889129638671875
678,40.873,-0.14075636302193079,0.28193025775390945,-0.1399293290577973,0.4445789304513588,-0.4082429352875558,,0.267486572265625,-0.5357666015625,0.2659149169921875
679,40.923,-0.30843359757336686,0.23269358960042807,-0.2189913895422298,0.6853408981423766,-0.6944962196436794,,0.3860626220703125,-0.291259765625,0.27410888671875
680,40.972,-0.07852862510516667,0.1100965410713759,-0.056013754248206094,0.453455472545163,-0.5364906612379792,,0.4579620361328125,-0.642059326171875,0.32666015625
681,41.022,-0.6521911267454003,-0.8129635754710907,-0.18917263510476057,0.5489869281886313,-0.5429839734250878,,-0.1092071533203125,-1.5148468017578125,0.2718353271484375
682,41.072,-0.5120556234947474,-0.7789904321202467,-0.06820766522778532,0.5725330822638273,-0.5798351645103724,,0.067779541015625,-1.4469757080078125,0.39825439453125
683,41.122,-0.05092439308611829,0.1643100733932894,-0.03889413417792556,0.2303463212614881,-0.2887478794142433,,0.237823486328125,-0.7673492431640625,0.181640625
684,41.172,0.14092592190546221,0.6433520522765074,-0.00622319691032408,0.2973228960655737,-0.3225597958679753,,0.4634857177734375,-0.2603912353515625,0.27520751953125
685,41.222,0.7393571544573476,0.6459113526778689,0.29930219365926486,0.2823789555092268,-0.2865522693707774,,1.025909423828125,-0.273162841796875,0.5698394775390625
686,41.271,-0.011782159430623884,0.014149793150797452,-0.004061397947040912,0.2758890515497258,-0.6248650451728114,,0.6130828857421875,-0.7362823486328125,0.211334228515625
687,41.321,0.002287373563683498,-0.009819867579237918,0.0015444316719893658,0.1553664030307865,-0.2242446088581915,,0.226531982421875,-0.9725189208984376,0.1529541015625
688,41.371,-0.2852565993609072,0.2454756012148156,-0.03928872803127932,0.1580400445205322,-0.7538845290484072,,0.4686279296875,-0.4032745361328125,0.064544677734375
689,41.421,-0.17478275631738183,0.5838023143381385,-0.06634750790646583,0.1760076465542333,-0.7299432787783193,,0.5551605224609375,-0.0890350341796875,0.053955078125
690,41.471,-0.013565655434020552,0.31574255293226317,0.26811432922163436,0.1485113088615378,-0.6715246398090206,,0.657958984375,-0.417022705078125,0.3781585693359375
691,41.571,-0.5134917876845175,-1.5129680197515354,1.509041134868729,0.1800607806795719,-0.7599212310438925,,0.246429443359375,-2.1523590087890625,1.6260833740234375
692,41.62,0.34220640834989957,-0.21984884175347397,0.08576053068256786,0.3341724864935078,-0.8355127078610379,,1.1777191162109375,-0.73773193359375,0.269378662109375
693,41.755,1.354317709757753,1.7844713935000518,-0.1686777056065933,0.5404232849522975,-0.7811955959063094,,2.1355133056640625,1.2592010498046875,0.168701171875
694,41.984,-2.9606714913883354,1.1090173264332945,-0.3097297814673422,0.3940898548656595,-0.8941126534977104,Straight,-2.066558837890625,0.697418212890625,-0.13323974609375
695,42.034,-0.8942508281678264,0.16305892675831207,1.3283126752690033,0.2625894596173964,-0.9404544414490764,,0.04620361328125,-0.1649322509765625,1.417572021484375
696,42.084,-0.054446289129795655,0.012953201955256233,0.6147075847372286,0.0561356851793138,-0.969988891668858,,0.9155426025390624,-0.2298126220703125,0.62835693359375
697,42.134,0.41062977985195703,-0.15526003834140883,0.738794352639367,-0.0484921550907642,-0.981734722101168,,1.392364501953125,-0.3452911376953125,0.7295684814453125
698,42.184,0.39660928320990685,-0.18099805151429899,0.47597861478045744,-0.1157717938759435,-0.9807710878838432,,1.37738037109375,-0.374847412109375,0.4533843994140625
699,42.233,0.04481435739986739,-0.0379664106620935,0.019431704503993674,0.4556064201234865,-0.7243811992407576,,0.769195556640625,-0.6516571044921875,0.333526611328125
700,42.283,-0.017564474322004586,0.03086823337607636,-0.020837007703742083,0.5594903820265,-0.4265610563532546,,0.40899658203125,-0.718780517578125,0.485198974609375
701,42.333,-0.08735872949443313,0.08345425698139641,-0.07792292092126218,0.6824693364207612,-0.6076529189475581,,0.520294189453125,-0.497039794921875,0.4640960693359375
702,42.383,-0.0126473133444156,0.07250399460376189,-0.03824970420563889,0.4666031584145241,-0.1524788563131656,,0.13983154296875,-0.8016204833984375,0.4228973388671875
703,42.433,-0.020833506127747398,-0.09561594571814025,0.15599202259428618,0.4528868511058189,-0.1213889260496224,,0.100555419921875,-0.9805908203125,0.60552978515625
704,42.483,-0.004384894346191506,0.04635507858276533,-0.023822599608106787,0.4570876846884076,-0.083837408994629,,0.0794525146484375,-0.839935302734375,0.4316558837890625
705,42.533,-0.008971888570963593,0.01752163587248934,-0.0020740386018877066,0.1175494891359754,-0.4532620497037761,,0.4442901611328125,-0.86767578125,0.1027069091796875
706,42.582,0.3752732683740892,-0.25310530044627466,0.5361711923342984,0.0488599876424066,-0.4792036603368483,,0.8544769287109375,-1.1297607421875,0.5790557861328125
707,42.632,0.18481481955925128,-0.5861272014800128,0.13614415344010977,-0.0194302087439065,-0.5099788816126237,,0.694793701171875,-1.4461517333984375,0.1194305419921875
708,42.682,-0.15389560332909558,-0.7384248930050693,0.2419950007882099,-0.0980759058409594,-0.5492050515712831,,0.3953094482421875,-1.5700836181640625,0.1600341796875
709,42.732,-0.044220667496538746,-0.6326505795271946,0.12993069734118834,-0.2086483447323903,-0.6002967173012262,,0.5560760498046875,-1.414825439453125,-0.0369415283203125
710,42.782,-0.47562865445172486,-0.3951908812424215,-0.22091814304015747,-0.2770348481881979,-0.6539886398032874,,0.1783599853515625,-1.1220855712890625,-0.4304962158203125
711,42.832,0.006172666447555701,0.29078299215246073,0.07435346572405724,-0.2477304244131604,0.0205617045334932,,-0.0143890380859375,-0.6778411865234375,-0.1733245849609375
712,42.881,0.0375374933648491,0.5369574571703961,-0.11104841787101202,0.2025247549543878,0.0682992121148491,,-0.03076171875,-0.440032958984375,0.09100341796875
713,42.931,-0.1001687767243927,0.5869321592225525,0.07767208030346096,-0.1311919246883823,-0.1668191673493927,,0.066650390625,-0.390533447265625,-0.0516815185546875
714,42.981,-0.24488157528450527,0.3930286093275469,-0.0704232838113675,0.1763721410574134,-0.5228051592688803,,0.277923583984375,-0.4460601806640625,0.079925537109375
715,43.031,-0.0852592941643468,0.16463207113122158,-0.09820314994268381,0.5122843175037425,-0.4063805099846593,,0.3211212158203125,-0.6200714111328125,0.369873046875
716,43.081,-0.23851602118297566,0.2467773870520117,-0.07256315470397737,0.2821003794415174,-0.6799375299720382,,0.4414215087890625,-0.4567108154296875,0.1342926025390625
717,43.131,0.007311165039086499,0.315420504483959,0.02931543619738268,-0.0925419778066346,0.023073494140649,,-0.0157623291015625,-0.680023193359375,-0.063201904296875
718,43.181,0.02045652496975023,0.07845808161158929,0.015359206369438022,-0.1921165611096736,0.2478887759463127,,-0.2274322509765625,-0.872283935546875,-0.1707611083984375
719,43.23,-0.1596430552946868,-0.1477070957676242,0.12218307794474628,-0.219925968125903,0.3494511829865632,,-0.50909423828125,-1.0617218017578125,-0.0838775634765625
720,43.28,-0.4795091827994511,-0.5128743167106168,0.1076562172949922,-0.2048287748268643,0.4144727507942989,,-0.89398193359375,-1.4036407470703125,-0.0787506103515625
721,43.33,-0.2775712499743782,-0.5516253503776632,0.2509319227344643,-0.1212214193258255,0.4188093652599968,,-0.696380615234375,-1.4530029296875,0.1408538818359375
722,43.38,-0.8681645833236201,-0.9251708361434827,0.4495635381191769,0.0208708598144348,0.4150690592545049,,-1.283233642578125,-1.8347625732421875,0.4685516357421875
