Index,Time,Acceleration X,Acceleration Y,Acceleration Z,Orientation X,Orientation Z,Punch Type,Raw Acceleration X,Raw Acceleration Y,Raw Acceleration Z
0,0.0,-0.36463842625465226,-0.04900934197214191,-0.06859430492407836,-0.8136582301926767,-0.1748343491062148,,-0.1898040771484375,-0.62139892578125,-0.869720458984375
1,0.05,0.012694298354739703,0.06457549241144245,0.07624440317694625,-0.7630851691838111,0.1260365835109897,,-0.11334228515625,-0.576568603515625,-0.680755615234375
2,0.1,-0.022278043773926406,0.13010668930575497,0.15131511094701455,-0.758245406315845,-0.1109468670161139,,0.0886688232421875,-0.5178375244140625,-0.6022491455078125
3,0.15,0.005110788815472597,0.02556516642428419,0.032248404084816884,-0.783629620945089,0.1232443337373476,,-0.118133544921875,-0.5909271240234375,-0.7454071044921875
4,0.199,-0.0036812390041925033,0.058447943068986374,0.049989494527195255,-0.6499759291301173,-0.0478096569729425,,0.04412841796875,-0.7006378173828125,-0.5992431640625
5,0.249,-0.0828273899609291,0.003051698244331158,-0.1775959912318429,-0.6793722627195601,-0.0935543186718666,,0.0107269287109375,-0.7275238037109375,-0.8539886474609375
6,0.299,-0.2088742933336027,0.08801932095450116,-0.37206441255151734,-0.6770186971173245,-0.1401181898179777,,-0.068756103515625,-0.64068603515625,-1.0424041748046875
7,0.349,0.002929070520104493,0.018098800712533114,0.02368462347051259,-0.7945677458026712,0.097792962121667,,-0.0948638916015625,-0.5861663818359375,-0.7670745849609375
8,0.399,0.00048042336776960015,0.020704929281286533,0.03159173013645633,-0.8363773911402891,0.0127179721958946,,-0.012237548828125,-0.52740478515625,-0.804718017578125
9,0.449,9.271261346320038e-05,0.00998865200576804,0.011693706084728972,-0.7603647491265046,0.0060283815587757,,-0.0059356689453125,-0.639495849609375,-0.7486572265625
10,0.499,-0.1126048384994126,0.19453434148747661,-0.24875538085498405,-0.7252204102815241,-0.0696666060775376,,-0.042938232421875,-0.4923095703125,-0.9722137451171876
11,0.548,0.0059548615271573235,0.02487297210068129,0.03468801333909566,-0.8126703539406054,0.1381722687537198,,-0.1322174072265625,-0.5522613525390625,-0.7701873779296875
12,0.598,0.4513045089144068,0.42096095969219993,0.26540467244741417,-0.76738648032817,0.1355086104769068,,0.3157958984375,-0.2143096923828125,-0.494903564453125
13,0.648,-0.1266709888332191,0.3386558874472664,0.13266379876292755,-0.3647480971287431,-0.3288957202785316,,0.2022247314453125,-0.5406494140625,-0.2117919921875
14,0.698,-0.3893640544684195,-0.022597933861760566,-0.2751676093674345,-0.2670994657928345,-0.242620280054357,,-0.1467437744140625,-0.9574737548828124,-0.5342864990234375
15,0.748,-1.1634838903579172,-0.9692240073880568,-0.5810441499313148,-0.2257630321482722,-0.2348797643813549,,-0.9286041259765624,-1.9161529541015625,-0.8004913330078125
16,0.798,-0.9493647760242514,-0.6829629930294414,-0.4695816018902934,-0.1947638338138934,-0.2910395807117514,,-0.6583251953125,-1.6213531494140625,-0.655914306640625
17,0.847,0.013582048213061595,0.10085793360815454,0.04606728333582505,-0.4154673114221645,0.1215837571974366,,-0.108001708984375,-0.802001953125,-0.3663177490234375
18,0.897,-0.0611348576415445,0.2715829246190947,-0.260780582526977,0.6926160997493067,-0.160271210180607,,0.0991363525390625,-0.440399169921875,0.422882080078125
19,0.947,-0.004810757806919599,0.21356401209171838,-0.1305733437806097,0.5216303437716198,-0.0192150546819196,,0.014404296875,-0.6394500732421875,0.390960693359375
20,0.997,-0.27635465625743183,-0.3430697876676958,-0.9253124510801649,0.4659704379414107,-0.0644863701246193,,-0.2118682861328125,-1.2260284423828125,-0.4603118896484375
21,1.047,-0.2961520934196739,-0.146720595247945,-1.9844841734192586,0.4620161390245191,-0.1199283385368614,,-0.1762237548828125,-1.027191162109375,-1.5258026123046875
22,1.097,-0.014901344341346101,0.15883993691405096,0.17957350052010634,-0.7490245983990202,-0.0620357437554086,,0.0471343994140625,-0.5024261474609375,-0.5680084228515625
23,1.146,0.24904472880272288,0.6011910467276844,0.8561899088895064,-0.7523344802660002,-0.1175324196347771,,0.3665771484375,-0.0530242919921875,0.10906982421875
24,1.196,-0.2167229845161735,0.5684928055773967,-0.36476798596862114,0.5400328184986367,-0.305513878070861,,0.0887908935546875,-0.23291015625,0.149444580078125
25,1.246,-0.5772656981055806,-0.6673209279720463,-0.5837851832950993,0.490381849129972,-0.2758283201758931,,-0.3014373779296875,-1.5050201416015625,-0.1124267578125
26,1.392,1.2640381243166254,-1.2483592911465902,-2.574535346489051,0.6012804862216939,-0.197952232128687,,1.4619903564453125,-2.031585693359375,-1.9851531982421875
27,1.634,-5.892015861451329,0.5853512869283847,2.6691384972793712,0.800508574553108,0.0394263992908587,,-5.9314422607421875,-0.0135040283203125,3.469024658203125
28,1.701,-2.1657786297337553,0.5286169078783018,-1.439329474108737,0.7651541235853144,-0.011374943210318,Hook,-2.1544036865234375,-0.1151885986328125,-0.674224853515625
29,1.751,-1.3683744375765836,-0.2514633463243747,-1.5215786352780354,0.7475748567487065,-0.0355039541781461,,-1.3328704833984375,-0.91522216796875,-0.77447509765625
30,1.801,-1.5485159467856533,-0.2044167379137466,-1.4944920039852732,0.7501071256198582,-0.0650106977622158,,-1.4835052490234375,-0.8643341064453125,-0.7459716796875
31,1.85,-1.470109643816459,-0.20098469978632683,-1.0682225985635205,0.7372022526597375,-0.1416642092461465,,-1.3284454345703125,-0.869842529296875,-0.3384552001953125
32,1.9,-1.2043133635274805,-0.09943435422260805,-1.0784698414109317,0.7236140990993116,-0.3079205412618556,,-0.896392822265625,-0.756103515625,-0.3900146484375
33,1.95,0.24959379230360412,0.33450113305430307,0.26598020636642583,-0.6223798973368009,0.5043240169129791,,-0.254730224609375,-0.3413848876953125,-0.271453857421875
34,2.0,0.5490462306972861,0.6623382388935958,0.030270820385493225,-0.6245245538387244,0.3490340236660361,,0.20001220703125,-0.069549560546875,-0.5549774169921875
35,2.05,-0.2840246971080038,0.29767864559829704,0.10701987395201851,-0.3383152193616117,-0.6680884178111288,,0.384063720703125,-0.40252685546875,-0.14471435546875
36,2.1,-0.04452633655970928,-0.17394063633517165,-0.278582334758056,-0.3494450036715782,-0.7238934019893968,,0.6793670654296875,-0.8203582763671875,-0.5196685791015625
37,2.15,0.1941018015919389,-0.5815353711214926,-0.8877061489182962,-0.2503356907452855,-0.7298483937205611,,0.9239501953125,-1.243377685546875,-1.058837890625
38,2.199,-0.15858951728300408,-0.6958967847764311,-0.5357516479218378,-0.0454269748639907,-0.7027637116189416,,0.5441741943359375,-1.406585693359375,-0.5680694580078125
39,2.249,-0.007385304506767776,0.01747949078275146,-0.0012767864711081545,0.0728507414511729,-0.3883209734520803,,0.3809356689453125,-0.9015960693359376,0.06585693359375
40,2.299,-0.061153088775325215,0.09560899486674546,-0.05637474256715802,0.5079178416351203,-0.4825703251034502,,0.421417236328125,-0.6588592529296875,0.38848876953125
41,2.349,-0.050677314704424714,0.05058754234199414,-0.0648890957895647,0.7886552469935397,-0.5244321975169247,,0.4737548828125,-0.4729156494140625,0.6066131591796875
42,2.399,0.3326396134367142,-0.07433815151248019,0.1505555267140385,0.8555975037216795,-0.5321369978914108,,0.864776611328125,-0.512603759765625,0.8749542236328125
43,2.449,0.3685021719166426,-0.19665889860373875,0.17508195155452966,0.869834247973758,-0.5290350595286699,,0.8975372314453125,-0.6153106689453125,0.9132232666015624
44,2.498,0.013132445995452713,-0.014126700581859497,0.011723245050491604,0.6386076087982786,-0.5818229983404848,,0.5949554443359375,-0.6399993896484375,0.5311126708984375
45,2.548,-0.11026728865506419,0.35517389118771003,0.06046730100929887,0.6676475931679389,-0.5752941441238142,,0.46502685546875,-0.2537689208984375,0.6065673828125
46,2.598,-0.22325416692620004,0.4454161870084371,0.20352390663080555,0.6321478396280467,-0.55363746770745,,0.33038330078125,-0.1998443603515625,0.729949951171875
47,2.648,-0.027037426735440073,0.3117643689923826,0.11197473864691215,0.5594524236373215,-0.5244434325948151,,0.497406005859375,-0.3939666748046875,0.58831787109375
48,2.698,0.12425116438741152,-0.26790218123471576,-0.14157615457751221,0.5210705093166267,-0.464722834636026,,0.5889739990234375,-1.023651123046875,0.3198089599609375
49,2.748,0.009932621000006192,-0.47375213200595245,-0.2311266101136505,0.4906750642289021,-0.4284981651328063,,0.4384307861328125,-1.26104736328125,0.21221923828125
50,2.797,0.008586238742882113,-0.012433474859327776,0.0031468109252434373,0.2453556105081138,-0.5563093911399304,,0.5648956298828125,-0.8180084228515625,0.20703125
51,2.847,-0.11729460325510666,0.1652855852575421,-0.0553901328981084,0.3177501003980057,-0.5582583483722942,,0.4409637451171875,-0.6213836669921875,0.2082366943359375
52,2.897,-0.14701160861873402,0.3131059838083403,-0.043219975806429306,0.1367396775805981,-0.421730846899984,,0.27471923828125,-0.5850982666015625,0.0807647705078125
53,2.947,-0.2019983219965612,0.26194781838908254,0.011709062952373735,-0.0446553922588944,-0.6102777409418737,,0.4082794189453125,-0.529449462890625,-0.0236663818359375
54,2.997,-0.023884018450842592,0.08054577795913265,-0.05773212378694259,0.5825699383800748,-0.2343027196227176,,0.210418701171875,-0.7096099853515625,0.5086212158203125
55,3.047,-0.517322576060418,-0.3564832234910914,0.5773087691448837,0.4289315855481204,-0.1888771414901055,,-0.3284454345703125,-1.243560791015625,0.9985198974609376
56,3.096,0.663023811173283,-0.6962473426456226,0.2471294328824098,0.2948193948449641,-0.1011821214439045,,0.7642059326171875,-1.6468963623046875,0.540435791015625
57,3.525,-2.2078559209644633,0.1959364306107434,-0.9767099752419879,0.3472660792006422,-0.0633857061207131,Hook,-2.14447021484375,-0.7399444580078125,-0.6301422119140625
58,3.575,-1.461588372075179,0.332633609556807,-1.1008403248173169,0.3012971817775921,-0.1010842216845541,,-1.360504150390625,-0.6160125732421875,-0.80108642578125
59,3.625,-1.6363082534933173,0.20100818222273364,-0.9036423494558613,0.2819514150610156,-0.1399551040792548,,-1.4963531494140625,-0.7489776611328125,-0.6244659423828125
60,3.675,-1.3318934845218913,0.18140208836720773,-0.7520376189602792,0.2253576954607854,-0.2122493194828288,,-1.1196441650390625,-0.7706756591796875,-0.5318145751953125
61,3.724,-1.1086915837059168,0.20058635858613594,-0.6556419945227684,0.1969012463288798,-0.3128999577293544,,-0.7957916259765625,-0.7306060791015625,-0.4686279296875
62,3.774,0.02117524516674002,0.03589825228586008,0.03379162857361073,-0.6854188875327835,0.39464936626049,,-0.37347412109375,-0.633148193359375,-0.5959930419921875
63,3.824,0.3034211111793981,0.28310890123376853,-0.16045188948177314,-0.7288691142179822,0.2105256033668981,,0.0928955078125,-0.386199951171875,-0.87298583984375
64,3.874,0.3375557744496515,0.3955513748202324,0.018465535631627228,-0.7240574121978253,0.0256966435902765,,0.311859130859375,-0.2939605712890625,-0.705352783203125
65,3.924,0.4037380618323299,0.4072681643575211,0.16313490136233966,-0.7059698352858853,-0.1360568600426701,,0.539794921875,-0.2943878173828125,-0.5362701416015625
66,3.974,-0.026302290756909485,0.018545278123149767,0.01635870696446934,-0.6615130920425144,-0.728557539780347,,0.7022552490234375,-0.495147705078125,-0.436767578125
67,4.024,0.04797610983053924,-0.4548622902405929,-0.04154276603171497,-0.5564155348250233,-0.7783178354819608,,0.8262939453125,-0.9765625,-0.390899658203125
68,4.073,0.11403360772822047,-0.6994815357951274,0.004783044778861961,-0.4008041574392136,-0.7975569684436545,,0.911590576171875,-1.2521514892578125,-0.23699951171875
69,4.123,0.06589469023163819,-0.6837060867395328,0.8369404680973143,-0.162729674891623,-0.7845539181667993,,0.8504486083984375,-1.295501708984375,0.7360382080078125
70,4.173,-0.30789964891045085,-0.37071729129785347,0.550119628162614,-0.0040847601568845,-0.7578965971526384,,0.4499969482421875,-1.0230865478515625,0.547454833984375
71,4.223,-0.0702643446778255,0.06427619750859792,-0.07048172262300967,0.7388856368443865,-0.593076234326263,,0.5228118896484375,-0.4782562255859375,0.5244293212890625
72,4.273,0.06225273443319601,0.214488550898004,-0.2570227162233384,0.7641963291834806,-0.580691601504304,,0.6429443359375,-0.31060791015625,0.3651275634765625
73,4.323,-0.08128500384850146,0.08599081767048944,-0.03914776512391499,0.4143382040148698,-0.6521773378328765,,0.570892333984375,-0.60394287109375,0.2749481201171875
74,4.372,0.038497562651693795,-0.07781430030621894,0.005096953259048444,0.0653614335124452,-0.4426730916451812,,0.481170654296875,-0.9725799560546876,0.0637054443359375
75,4.422,0.1601181840146565,-0.025156667907855534,-0.17014165490797614,0.0273924582742841,-0.419731059149406,,0.5798492431640625,-0.932464599609375,-0.1452789306640625
76,4.472,-0.09512605659651274,0.10086142176241897,-0.024451556810184044,0.2356027835692717,-0.6756924628465127,,0.58056640625,-0.615570068359375,0.14923095703125
77,4.522,-0.1265673206536646,0.34809621858298767,0.30022421537210586,0.2343893078657632,-0.6425280140130396,,0.515960693359375,-0.396820068359375,0.479827880859375
78,4.572,-0.23333225950546443,0.23937289281429386,-0.06441504541449333,0.2598549766307063,-0.6854044030601519,,0.4520721435546875,-0.463775634765625,0.1248016357421875
79,4.622,-0.09862964408155961,0.11782037092419761,0.06286345089193318,-0.4707393398747466,-0.5940977837299971,,0.4954681396484375,-0.5918731689453125,-0.3157958984375
80,4.671,0.03059858155375661,-0.06379015543291833,-0.023851076994802323,-0.3502191711833505,-0.4098311059462434,,0.4404296875,-0.918182373046875,-0.3433074951171875
81,4.721,-0.2721470582992046,-0.5843255877270019,0.43737160885472737,-0.4699369448083579,-0.3495854127913921,,0.0774383544921875,-1.4113311767578125,-0.0029144287109375
82,4.771,-0.029873129073667515,-1.0168334671565575,0.6024922147109018,-0.5218415306263894,-0.2752954923549175,,0.24542236328125,-1.8369140625,0.1008148193359375
83,5.003,1.8028946314466607,4.028016470675097,-6.360334686442548,-0.5389503098246969,-0.1583327855455268,,1.9612274169921875,3.1963043212890625,-6.892486572265625
84,5.16,-2.9864914175459,0.25320575251564537,0.08976650555227628,-0.5473766392146047,-0.155955528874025,Hook,-2.830535888671875,-0.5734405517578125,-0.4509124755859375
85,5.21,-1.3924690646209958,0.18199954575053234,-1.202427746612138,-0.5735179862793512,-0.1945778292694333,,-1.1978912353515625,-0.6215362548828125,-1.764984130859375
86,5.26,-0.6964379127222705,0.11031137891309317,-1.1574391118447123,-0.5785792252036669,-0.252605515261333,,-0.4438323974609375,-0.678863525390625,-1.717254638671875
87,5.309,-1.2367692107062571,-0.11814413886269948,-0.6540285413632985,-0.3746145373562854,-0.2879929655890696,,-0.9487762451171876,-1.00604248046875,-1.0127716064453125
88,5.359,-1.0872183721624358,0.005658638745134503,0.05988987306753313,-0.2487397297524672,-0.3592825811468108,,-0.727935791015625,-0.8982391357421875,-0.1722412109375
89,5.409,0.06649371480269795,0.093534758024307,0.053902625197748855,-0.4993072411792603,0.524440492146448,,-0.45794677734375,-0.6441802978515625,-0.3712310791015625
90,5.459,-0.021149390003113,0.10371466380377203,0.1396151455929644,-0.8027423186139658,-0.1207129886359255,,0.0995635986328125,-0.488250732421875,-0.657257080078125
91,5.509,-0.1223560270115518,0.09487675310548749,0.053618970585805004,-0.4920084345209075,-0.7467456754490518,,0.6243896484375,-0.484161376953125,-0.27362060546875
92,5.559,0.0027689470292223684,-0.002214835498954626,-0.0013215154465247014,-0.5123885410218867,-0.7317433820723401,,0.7345123291015625,-0.5875244140625,-0.350555419921875
93,5.609,0.016238666364695953,-0.013071398277404778,-0.008427704765377964,-0.5418791690399934,-0.722195171525929,,0.738433837890625,-0.5944061279296875,-0.38323974609375
94,5.658,0.048986380464047574,-0.05419820955966792,-0.0354445633086064,-0.5473280284999206,-0.6032810755906399,,0.6522674560546875,-0.7216644287109375,-0.471954345703125
95,5.708,0.03746213095952755,-0.04302908677258033,-0.030313611518947514,-0.5759238732686324,-0.579862698142035,,0.6173248291015625,-0.7090606689453125,-0.4995269775390625
96,5.758,0.03967483073746447,-0.05261935485632263,-0.025086988276007416,-0.430355176639653,-0.5626506087156605,,0.602325439453125,-0.7988433837890625,-0.380859375
97,5.808,0.05466518678120458,-0.07110883190178485,-0.030393748808008214,-0.3930291366784992,-0.5772317858750454,,0.63189697265625,-0.8219757080078125,-0.3513336181640625
98,5.858,0.030388248337809398,-0.18656051512672056,-0.2614727479742293,-0.4443720852826652,-0.5848613854512531,,0.6152496337890625,-0.9132080078125,-0.621917724609375
99,5.908,0.00031588451156028263,-0.308152236047047,-0.3537640206844327,-0.4662449952130484,-0.5791976652931272,,0.5795135498046875,-1.0293121337890625,-0.7338409423828125
100,5.957,-0.1477097152659319,-0.38100829944993597,-0.43859308997590835,-0.4516309707684455,-0.5638016342112444,,0.4160919189453125,-1.117889404296875,-0.8115997314453125
101,6.007,-0.29043578907540546,-0.29644143673436085,-0.33470099794891445,-0.42751031736952,-0.5452575664191555,,0.25482177734375,-1.0542449951171875,-0.6930694580078125
102,6.057,0.009588010626071009,-0.042966748557236145,-0.01790431182830865,-0.3846428410380721,-0.201746217889554,,0.211334228515625,-0.947052001953125,-0.3946380615234375
103,6.107,-0.015730380428618906,0.06361918618849538,0.018764383693236075,-0.2828997074455951,-0.2307572358973689,,0.21502685546875,-0.8696441650390625,-0.256500244140625
104,6.157,-0.0174785261316015,0.05255467410726844,0.024583914133855855,-0.423711823974686,-0.2884441023034765,,0.270965576171875,-0.8147430419921875,-0.3811187744140625
105,6.207,0.01155494164835369,-0.04646875705358455,-0.029298958871816883,-0.533345708606657,-0.2058370261250838,,0.2173919677734375,-0.8742523193359375,-0.5512237548828125
106,6.256,0.014804828355231892,-0.076070389166079,-0.04719824469726752,-0.5272188449444476,-0.1631584284807056,,0.1779632568359375,-0.9144134521484376,-0.567352294921875
107,6.306,0.0029153009363525884,-0.01776609218810643,-0.010233118026030996,-0.4991166721921714,-0.1407767156652099,,0.1436920166015625,-0.87567138671875,-0.5043792724609375
108,6.356,-0.006676501974002991,0.025793097491386696,0.012976469181830708,-0.4494265942904753,-0.2252891728724405,,0.2186126708984375,-0.8445587158203125,-0.424896240234375
109,6.406,0.004629195014197507,-0.030172350612995058,-0.015499848052447307,-0.4569432122734392,-0.135217606743615,,0.1398468017578125,-0.9114990234375,-0.4682464599609375
110,6.456,-0.00032084607573710025,-0.05968176523881075,-0.049592694459984266,-0.6391029541342388,0.0041347203305129,,-0.00445556640625,-0.82879638671875,-0.688690185546875
111,6.506,8.529534753299976e-06,-0.004219737580524852,-0.0027949979061154817,-0.5522137207766867,-0.0016851960511842,,0.0016937255859375,-0.837921142578125,-0.5550079345703125
112,6.555,-0.012669863733286907,-0.06272925080233216,-0.048950091348862745,-0.6151980312113694,0.1572520112667131,,-0.169921875,-0.8412933349609375,-0.656494140625
113,6.605,-0.016872466040340095,-0.050846808022751544,-0.03298896323127365,-0.5442752936101045,0.2681769724362224,,-0.2850494384765625,-0.8590240478515625,-0.5573272705078125
114,6.655,0.01708983094189742,0.040064314064369166,0.025843139130819148,-0.5420556980555095,0.3374328485200224,,-0.320343017578125,-0.7509918212890625,-0.4844207763671875
115,6.705,0.019904988378995403,0.04627215817799668,0.03731981209203772,-0.6277886910399183,0.3175124102539954,,-0.297607421875,-0.69183349609375,-0.5579833984375
116,6.755,0.010847585156328776,0.023085559515556686,0.017845125739185175,-0.6115823443176698,0.3484635519532038,,-0.337615966796875,-0.718505859375,-0.5554046630859375
117,6.805,0.039330748368230306,0.08460701744271815,0.05782959633782658,-0.5642889545424005,0.3583004749307303,,-0.3189697265625,-0.6861572265625,-0.468994140625
118,6.855,0.052732378499336596,0.13371695786533688,0.09403160268289634,-0.5752253280221726,0.3070048394368366,,-0.2542724609375,-0.644775390625,-0.4534149169921875
119,6.904,0.0801787205977208,0.16243191236292398,0.10971738613469362,-0.5597386470220054,0.3785948582930333,,-0.2984161376953125,-0.60455322265625,-0.408355712890625
120,6.954,0.053671117302016014,0.10003678950791461,0.04133741234927113,-0.3819011743347234,0.444235082145766,,-0.39056396484375,-0.72796630859375,-0.300811767578125
121,7.004,-0.03146517255035991,-0.0996002079678201,-0.2140620064723724,-0.4074386791368152,0.4703963997152651,,-0.501861572265625,-0.905487060546875,-0.5736083984375
122,7.054,-0.03178943628389408,-0.26642095699330437,-0.3559884164984056,-0.4222657323880288,0.480081901606731,,-0.511871337890625,-1.0615997314453125,-0.726409912109375
123,7.104,0.03875486220260477,-0.22463118289760486,-0.38731933683154135,-0.4425995437677522,0.4801000770463547,,-0.44134521484375,-1.0112457275390625,-0.77557373046875
124,7.154,0.10449476953618758,-0.0861730588806946,-0.1885842096936109,-0.42664524254101,0.4788233828174376,,-0.37432861328125,-0.8801727294921875,-0.563140869140625
125,7.203,0.04484311877920372,0.12312758308322236,0.03786131004575116,-0.2939149369005593,0.3287634068651412,,-0.2839202880859375,-0.779571533203125,-0.239715576171875
126,7.253,0.029705676097920186,0.17255176155792895,0.07442193218883975,-0.3960365487770724,0.1561400022697952,,-0.126434326171875,-0.7344207763671875,-0.3167572021484375
127,7.303,-0.003990247327899696,-0.04229370460381465,-0.031647159742206665,-0.5991137355168179,0.0753249382189753,,-0.079315185546875,-0.8406829833984375,-0.629058837890625
128,7.353,0.13305593556131878,-0.29638925560939344,-0.49105114955492235,-0.5496078141479748,0.0743248564597563,,0.0587310791015625,-1.1295013427734375,-1.0391387939453125
129,7.403,0.053072171153266595,-0.49424050156052113,-0.4288851862308692,-0.4818779411295111,0.0891592072860791,,-0.0360870361328125,-1.3669891357421875,-0.908843994140625
130,7.453,-0.022549500031507796,-0.1191716217606591,-0.2162012534396774,-0.3850309590624054,0.0730162958669297,,-0.0955657958984375,-1.03961181640625,-0.6002044677734375
131,7.502,-0.008785210050853101,0.2577957866179742,0.08217088472451717,-0.3036900886759563,-0.0324515918867906,,0.0236663818359375,-0.6944732666015625,-0.2213592529296875
132,7.552,0.024122619836457,0.49924064226639775,0.0017382924534486868,-0.0034818517751525,0.048262024133332,,-0.024139404296875,-0.4995880126953125,-0.001739501953125
133,7.602,0.000290565694232,0.5378189396676264,-0.07776264391885093,0.1431007991415128,0.000534706319232,,-0.000244140625,-0.4518890380859375,0.065338134765625
134,7.652,0.026439751980566806,0.20533499046944537,0.08866032584122646,-0.3964094246463731,0.1173973935821293,,-0.0909576416015625,-0.706390380859375,-0.3050079345703125
135,7.702,-0.009084800549036487,-0.22733273807318544,0.5889854744951872,-0.4391298043494117,0.161981483630651,,-0.1710662841796875,-1.1138916015625,0.1556549072265625
136,7.752,0.5276121763084828,-0.4604632168071796,0.20519769768219043,-0.5440423468848989,0.2005705503319203,,0.3270416259765625,-1.282470703125,-0.327789306640625
137,7.802,1.0452677057860833,-0.760076398924181,-0.4856012566236838,-0.6172790445952134,0.3216196344970209,,0.7236480712890625,-1.5050201416015625,-1.0700836181640625
138,7.851,1.630972371367287,-1.190711174572416,-0.5129972206601112,-0.5734026430289457,0.4612030842579119,,1.169769287109375,-1.9176483154296875,-1.0217742919921875
139,8.2,-1.9465669633857832,0.4703145801630013,-0.28686780608321394,-0.5109432214879491,0.4469877241142168,Hook,-2.3935546875,-0.29864501953125,-0.743927001953125
140,8.25,-0.4246387893115756,-0.07027811531476846,-0.7057630485273843,-0.5333686083460134,0.3706492966259244,,-0.7952880859375,-0.8559112548828125,-1.201141357421875
141,8.3,-0.1673649895427593,-0.31019135747124504,-0.9217941382984733,-0.5548260808605511,0.2820979010822407,,-0.449462890625,-1.108367919921875,-1.4540863037109375
142,8.35,-0.44083062275480667,-0.3182554077888752,-0.763770502953151,-0.5032052353017226,0.1791492356436308,,-0.6199798583984375,-1.1684417724609375,-1.2588348388671875
143,8.4,-0.7533967013716008,-0.19648202739590048,-0.6303826014549504,-0.395621927374536,0.0521147732377742,,-0.805511474609375,-1.1136474609375,-1.0254669189453125
144,8.449,0.02846002158670491,0.10769265412989149,0.10884389029139485,-0.7108561319615221,0.1827416377976424,,-0.1542816162109375,-0.58380126953125,-0.5900421142578125
145,8.499,0.7516021196274003,0.5778656911291071,0.4892640292244358,-0.7177940384913445,-0.0144959028335372,,0.7660980224609375,-0.118316650390625,-0.22845458984375
146,8.549,-0.05332347786378788,0.03649893062555487,0.019942212648712043,-0.4794765700431873,-0.7885071936841004,,0.7351837158203125,-0.5032196044921875,-0.2749481201171875
147,8.599,-0.10068948864303418,0.12729542404452787,0.04973637689617788,-0.3639241791040322,-0.5931516468461592,,0.492462158203125,-0.622589111328125,-0.243255615234375
148,8.649,0.004277810577913654,-0.004114027090220906,-0.0017679037590661584,-0.3948151611887706,-0.6907752900080238,,0.6950531005859375,-0.6684417724609375,-0.2872467041015625
149,8.699,0.0449067782420971,-0.07341835291708654,-0.017957532306542456,-0.237588218853797,-0.5107878018360279,,0.555694580078125,-0.90850830078125,-0.2222137451171875
150,8.749,-0.18825240740968785,-0.24858862740224252,0.019452693074847066,-0.1834021582817786,-0.5571794093628128,,0.368927001953125,-1.0648956298828125,-0.132843017578125
151,8.798,-0.26949512363087746,-0.23231837331178007,-0.2546522616073095,-0.1426216265266839,-0.60599719882619,,0.3365020751953125,-1.0196533203125,-0.36810302734375
152,8.848,-0.22210620135349357,-0.15615172614469763,-0.4172346346172559,-0.0778562311668344,-0.6562187501816186,,0.434112548828125,-0.9084320068359376,-0.475982666015625
153,8.898,-0.15102397650482435,-0.04978876330121684,-0.6258303788373941,0.0101770945178411,-0.6905289813876369,,0.5395050048828125,-0.7730560302734375,-0.61846923828125
154,8.948,-0.004438795376915383,0.0035707513409687364,0.0036549769841310864,-0.7153004752492885,-0.6558059828769154,,0.6513671875,-0.52398681640625,-0.536346435546875
155,8.998,0.1179834226220765,0.301106270272817,-0.0974173815842827,-0.6291632859356969,-0.6518835207372985,,0.769866943359375,-0.2883148193359375,-0.57452392578125
156,9.048,-0.16678101191521677,0.13993535353343356,0.0660266586212826,-0.4267213196493817,-0.7330957091808418,,0.566314697265625,-0.47515869140625,-0.2241973876953125
157,9.097,-0.013377722257318314,0.024410756759678076,0.01242775668440671,-0.4536964448801932,-0.4388385376870058,,0.4254608154296875,-0.7763519287109375,-0.3952484130859375
158,9.147,-0.10204604722937238,-0.23592100270014282,-0.485119295646927,-0.4325820908459018,-0.3892164573856224,,0.28717041015625,-1.0664215087890625,-0.8835906982421875
159,9.197,-0.2686830551282054,-0.298285412204209,-0.10205967809033356,-0.3716474126917044,-0.3626314193860179,,0.0939483642578125,-1.1634674072265625,-0.4484100341796875
160,9.247,-0.00028648649145120164,0.007458727356282946,0.0010292893152220317,-0.1367024766316744,-0.0380214718430137,,0.0377349853515625,-0.9824371337890624,-0.1355743408203125
161,9.297,-0.003735392617402397,0.04677884655495845,-0.010753145731047187,0.2240291868410241,-0.0775879316799024,,0.0738525390625,-0.92486572265625,0.2126007080078125
162,9.347,7.422283506360039e-05,-0.0050897229182960135,0.0009271178254921242,0.1792060684976457,-0.0143453328289989,,0.0144195556640625,-0.988800048828125,0.18011474609375
163,9.396,-0.130803722975828,-0.2809437596444879,-0.36023443271576705,0.1633295720006096,-0.010961193678953,,-0.119842529296875,-1.2674560546875,-0.1969146728515625
164,9.446,0.0624249078494991,-0.12070829189709509,-0.6114698919201216,0.1414443988381397,-0.0473773382442509,,0.10980224609375,-1.1095428466796875,-0.470184326171875
165,9.496,0.007441465365533917,-0.02746151792110363,-0.008036063993634268,-0.2808519645544728,-0.2516985492829036,,0.2591400146484375,-0.9563140869140624,-0.27984619140625
166,9.546,-0.02576203123135501,0.06769747554995942,-0.010463377728501116,0.1527471024458422,-0.3520102001766675,,0.3262481689453125,-0.8573150634765625,0.13250732421875
167,9.596,-0.025880867257903672,0.07700046340464528,0.40886496438565945,0.2893804532696138,-0.3540211260469662,,0.3281402587890625,-0.8182220458984375,0.67950439453125
168,9.646,-0.008904639184344282,0.041704739953264736,-0.028435162379631174,0.5633383449201104,-0.1737300786374693,,0.164825439453125,-0.7719573974609375,0.526336669921875
169,9.696,0.011226118105517213,-0.08808329574486351,0.01102936653791653,0.1242449686308363,-0.1254621143163578,,0.136688232421875,-1.0724945068359375,0.1342926025390625
170,9.745,0.1197639757937772,-0.37187752130603857,-0.3283707604152386,0.1622648565573818,-0.0878165906124728,,0.20758056640625,-1.3548126220703125,-0.1667327880859375
171,9.795,-0.017321735036699003,-0.3617738355461835,0.10987673598997622,0.2925256184408228,-0.0393401676538865,,0.0220184326171875,-1.317291259765625,0.4021759033203125
172,9.845,0.1267486110488284,-0.07783311739714649,0.2542282930553849,0.3440279099382874,-0.0217194065292966,,0.148468017578125,-1.016571044921875,0.598175048828125
173,9.895,-0.13083324416499714,0.19910543625981836,-0.14768140438338317,0.5957376870803992,-0.4667554853759346,,0.3359222412109375,-0.5112152099609375,0.379180908203125
174,9.945,0.102798461474164,0.6112937230325941,-0.2573520195894309,0.5671829026417132,-0.4714965824711485,,0.5742950439453125,-0.1150054931640625,0.242828369140625
175,9.995,-0.21528797633311403,0.4059344794922114,-0.02095045082094677,0.0515418258580685,-0.4680498171534265,,0.2527618408203125,-0.476593017578125,0.02459716796875
176,10.044,-0.009804662119376403,0.16405564290928332,-0.013000590386245639,0.0789973514336689,-0.0594720205178139,,0.0496673583984375,-0.8310546875,0.06585693359375
177,10.094,-0.013752310767034898,0.2143612162777695,-0.01202072419235379,0.0559889915078162,-0.0639232092045349,,0.0501708984375,-0.7820281982421875,0.043853759765625
178,10.144,-0.005900203616484398,0.07844130350669654,-0.06668124854348101,0.6476830458594582,-0.0572155112336719,,0.0513153076171875,-0.682220458984375,0.5799407958984375
179,10.194,0.1383555731640065,-0.3877794430220721,-0.1191359149040761,0.4674483053635442,0.0139964423046315,,0.124359130859375,-1.2717132568359375,0.3482666015625
180,10.623,-2.277833418183084,0.1811262138966938,-0.9142076137100261,0.4399646666519181,-0.0009932082221463,Hook,-2.2768402099609375,-0.716888427734375,-0.4742431640625
181,10.672,-1.0663669841237706,0.14823079169707698,-1.746472929226893,0.4192115356559774,-0.0456150309987706,,-1.020751953125,-0.7587127685546875,-1.32769775390625
182,10.722,-1.1035457933565924,0.020938780025085868,-1.7159824994583064,0.4366498760780118,-0.1302181566378424,,-0.97332763671875,-0.87103271484375,-1.283050537109375
183,10.772,-1.1435781067362214,-0.03258836663403508,-1.3525391940503637,0.4891018279424459,-0.263039166306534,,-0.8805389404296875,-0.8740997314453125,-0.8806610107421875
184,10.822,-1.2106440631437616,0.08268729571159317,-1.3332876764742367,0.556226358558305,-0.432430562167199,,-0.7782135009765625,-0.6666259765625,-0.831756591796875
185,10.872,-0.964987559952124,0.2363182700732448,-1.2106232712626632,0.5817798635596617,-0.5936038929599365,,-0.3713836669921875,-0.4182281494140625,-0.742431640625
186,10.922,-0.4877596223798003,0.3754749589689296,-0.8117764849658743,0.5647653756850801,-0.7194032991376128,,0.2316436767578125,-0.1977386474609375,-0.41949462890625
187,10.971,-0.16095222984132052,0.47439416330371476,-0.5539746042853526,0.570801925390664,-0.783495564802258,,0.6225433349609375,-0.03582763671875,-0.19927978515625
188,11.021,-0.09391385517047834,0.3981240294339208,-0.3304719541379209,0.5797444513212113,-0.7827566286079783,,0.6888427734375,-0.10894775390625,0.0303192138671875
189,11.071,-0.30036504715999257,0.3598541314786331,0.06495824207051523,-0.1776416910070986,-0.6347308918865551,,0.3343658447265625,-0.4005889892578125,-0.0723114013671875
190,11.121,-0.3792284497315327,-0.29223712369196364,-0.5634882782721673,-0.3096458664118226,-0.5959795483643452,,0.2167510986328125,-1.0557708740234375,-0.8121337890625
191,11.171,-0.04813629535963271,-0.9828140292316326,-1.0147741174687446,-0.4285999854815088,-0.5944162025861952,,0.5462799072265625,-1.7093658447265625,-1.35943603515625
192,11.221,0.31615456856917246,-0.8102179128502074,-0.8916480123425801,-0.4533284428802752,-0.6373213835792652,,0.9534759521484376,-1.4970855712890625,-1.2409820556640625
193,11.27,0.29752883485768267,-0.520687211392378,-0.442544656054936,-0.4354102220471045,-0.6759666485407549,,0.9734954833984376,-1.1840972900390625,-0.7634124755859375
194,11.32,0.27862049533148703,-0.4404628529860882,-0.20266221572995424,-0.370511652324717,-0.7047321658013254,,0.9833526611328124,-1.0994415283203125,-0.4655303955078125
195,11.37,0.1339706105114633,-0.4960001839652348,-0.711441712586942,-0.2553875834658058,-0.7158371287463492,,0.8498077392578125,-1.171112060546875,-0.8897705078125
196,11.42,-0.35791456468527116,-0.6162298918671916,-1.0389582713234793,-0.1098667698720507,-0.7163587785524587,,0.3584442138671875,-1.3097381591796875,-1.1156158447265625
197,11.47,-0.6379821497571987,-0.49868530656243293,-0.8858100837039312,0.005416661433012,-0.7224395472181362,,0.0844573974609375,-1.1901092529296875,-0.8820648193359375
198,11.52,-0.005500052980440304,-0.061949532144540465,-0.03116432040631295,-0.4493990039711024,0.0790641560039347,,-0.084564208984375,-0.952484130859375,-0.479156494140625
199,11.57,0.09125997776702299,0.28249661312216223,0.14096073828934808,-0.4464847627553661,0.277691862532648,,-0.186431884765625,-0.5771026611328125,-0.2879638671875
200,11.619,0.224071979735813,0.6084887604129737,0.17244923089791364,-0.272667092449191,0.3339505197748755,,-0.1098785400390625,-0.2983856201171875,-0.084564208984375
201,11.669,-0.012591478496480901,0.5475836548199687,-0.4023446727795841,0.5921130524884631,-0.0185271474417934,,0.0059356689453125,-0.2581329345703125,0.189666748046875
202,11.719,-0.16824517172452702,0.42030787054052754,-0.3619259333721446,0.6525170852935925,-0.2902697078573395,,0.1220245361328125,-0.304840087890625,0.2624969482421875
203,11.769,-0.1149878407277905,0.3243298569618662,-0.2705421562577923,0.6405577934944763,-0.2626929188527905,,0.147705078125,-0.4166107177734375,0.3475189208984375
204,11.819,-0.032406249418511696,0.13416244831992086,-0.13176598350616076,0.7007061016881219,-0.1698269037153867,,0.137420654296875,-0.5689239501953125,0.5587615966796875
205,11.869,-0.0722124168763087,-0.1504433842932016,0.03061361693960296,0.6716509313349855,-0.1330949852356837,,0.060882568359375,-0.8847198486328125,0.6962890625
206,11.918,-0.0678884568540966,-0.40713168793523735,0.08934250528718035,0.6440099384504121,-0.1015035691587841,,0.0336151123046875,-1.1681976318359375,0.7300262451171875
207,11.968,-0.028937788944407294,-0.6295973567041182,0.16186926417999647,0.6260651798464574,-0.0513224324990948,,0.0223846435546875,-1.4083404541015625,0.787109375
208,12.018,-0.33404880981577423,-0.9115580374379803,-0.04812319219167971,0.6752476692866599,-0.0262332580579617,,-0.3078155517578125,-1.648895263671875,0.62689208984375
209,12.068,-0.0205435914374513,-0.7554100819373695,0.10925342156843809,0.7313221121908122,-0.0213828248358888,,0.0008392333984375,-1.437286376953125,0.8404083251953125
210,12.118,-0.2787104521483863,-0.6347420410482406,-0.1382885333116074,0.8048910939973359,-0.0424128447265113,,-0.236297607421875,-1.227630615234375,0.6658782958984375
211,12.168,-0.006811771270043704,-0.03335538520264503,0.029066564823386987,0.6569748013760633,0.1521695519721438,,-0.1589813232421875,-0.7784881591796875,0.6783905029296875
212,12.217,0.021178055365186098,0.449619629670702,-0.2908194524607005,0.5431052907266991,0.0395191198183111,,-0.018341064453125,-0.3893890380859375,0.251861572265625
213,12.267,-0.42194620125950955,0.42194620125950977,-0.37718378629821747,0.6664542465249206,-0.597712192470447,,0.1757659912109375,-0.1757659912109375,0.1571197509765625
214,12.317,-0.12293421083229106,0.4138749322435554,-0.4398562638408495,0.6744594481375566,-0.5962923651291661,,0.473358154296875,-0.1788177490234375,0.1015777587890625
215,12.367,-0.03408839031073263,0.31242128028549965,-0.3331000562943214,0.6824967494758549,-0.5695345573029201,,0.5354461669921875,-0.2883453369140625,0.2278900146484375
216,12.417,-0.11776159300739741,0.0967622900356171,-0.07501669213294399,0.6127039062967877,-0.6932163049214599,,0.5754547119140625,-0.47283935546875,0.3665771484375
217,12.467,0.015769585489956328,-0.01858549782771024,0.010930170376856063,0.5069348298700134,-0.5903400336506687,,0.606109619140625,-0.7143402099609375,0.42010498046875
218,12.517,-0.10580498379876835,-0.2818609319294152,0.0925346983861734,0.5355890254904709,-0.5535283724706433,,0.447723388671875,-0.98516845703125,0.5385894775390625
219,12.566,0.03049034547053875,-0.3260276404056731,0.2616442369088708,0.5362069025478836,-0.5243802599982113,,0.55487060546875,-1.0447540283203125,0.7182159423828125
220,12.616,-0.1364166897634959,-0.1816628710113326,0.03895207432049558,0.5206701367180856,-0.4849732083181834,,0.3485565185546875,-0.9282989501953124,0.494293212890625
221,12.666,-0.0013844515874303909,0.024877310483415904,-0.011787517514473489,0.4281910234635585,-0.0502278353764929,,0.0488433837890625,-0.8776702880859375,0.415863037109375
222,12.716,-0.0006281257736400004,0.08214431605024775,-0.060213555567840804,0.5912001399420368,-0.0061670662033275,,0.0055389404296875,-0.724365234375,0.530975341796875
223,12.766,-0.0031598649196357964,0.012717521844015645,-0.00984600381573586,0.6121802080373611,-0.1927808365993233,,0.1896209716796875,-0.7631683349609375,0.590850830078125
224,12.816,-0.1286032679361934,-0.23416091069200073,-0.19764786146616764,0.5851196945221482,-0.1232474329752559,,-0.0053558349609375,-1.0389251708984375,0.3830108642578125
225,12.865,-0.247666227981302,-0.5402617932712428,-0.08712217826686663,0.5921967801280735,-0.0659798266141145,,-0.1816864013671875,-1.34429931640625,0.5037841796875
226,12.915,-0.23758886472233,-0.389481409077861,-0.35449931532547263,0.5657844588578993,-0.016061765112955,,-0.221527099609375,-1.21392822265625,0.211212158203125
227,12.965,0.002077784754052195,0.029545074286376316,-0.0007193048565596986,0.0243388040951932,0.0701319839728022,,-0.06805419921875,-0.9676971435546876,0.0235595703125
228,13.015,0.0039861988189671994,0.24227881939399531,-0.009765210096955891,0.0402729704200967,0.0164373706939672,,-0.012451171875,-0.75677490234375,0.0305023193359375
229,13.065,0.025212531291276694,0.3386922826358675,0.029102915618850728,-0.0856118303148443,0.0739643623459642,,-0.0487518310546875,-0.6549072265625,-0.0562744140625
230,13.115,0.034757866857242206,0.3397634701627017,0.20657059454177318,-0.5195028927078271,0.0870802545525547,,-0.0523223876953125,-0.5114593505859375,-0.3109588623046875
231,13.164,-0.022260700111062702,0.33960487260981365,0.19020564041458632,-0.4886560011119269,-0.0570965155407502,,0.0348358154296875,-0.5314483642578125,-0.2976531982421875
232,13.214,-0.017802460247559604,0.26915469055390784,0.07486406142092705,-0.2679723963852174,-0.0635940862241221,,0.0457916259765625,-0.69232177734375,-0.19256591796875
233,13.264,0.1338366548453516,-0.4854741808991009,0.024187617140042306,-0.424795768575034,-0.0174847562874609,,0.1513214111328125,-1.390625,-0.400543212890625
234,13.64,-6.062100742451023,4.0207675516980865,-0.9403709791371972,-0.2378796127252213,0.3803736227833514,,-6.442474365234375,3.1224822998046875,-1.160369873046875
235,13.792,-1.7809490462926882,-0.017876051526887204,-1.2197224169529624,-0.2845119438087704,0.3791919449182492,Hook,-2.1601409912109375,-0.9049530029296876,-1.4829864501953125
236,13.842,-1.2313331541328747,-0.07311780127979095,-0.7052012174969869,-0.2658211640647616,0.2195182862968127,,-1.4508514404296875,-1.0136260986328125,-0.96453857421875
237,13.892,-1.1373978484929606,0.4580947361142861,-0.7077754596704415,-0.2903188985861081,0.010810769671102,,-1.1482086181640625,-0.498779296875,-0.998077392578125
238,13.942,-0.4801162180659539,0.6238598633373553,-0.12392474051226704,-0.320133831754921,-0.1653579172847039,,-0.31475830078125,-0.3104705810546875,-0.4396514892578125
239,13.992,-0.2557446067058073,0.5390853032459797,-0.5771594876039844,-0.4026428860677613,-0.3326031272136198,,0.0768585205078125,-0.32415771484375,-0.956878662109375
240,14.042,0.0135873714519259,0.4406334215462875,-0.15412752094573007,-0.3849232408663842,-0.4592214664386991,,0.472808837890625,-0.379241943359375,-0.496063232421875
241,14.092,-0.18053858207886042,0.14934313728220483,0.14868090071222106,-0.7055337836323218,-0.6506008379382354,,0.470062255859375,-0.3888397216796875,-0.387115478515625
242,14.141,0.011980659607776944,-0.012652921682501428,-0.010766300096942238,-0.6480437879561931,-0.584912650939098,,0.596893310546875,-0.6303863525390625,-0.5363922119140625
243,14.191,-0.05925248084492418,-0.34436522644091017,0.24061575325551865,-0.6344077203620554,-0.5593898099464867,,0.5001373291015625,-0.985107421875,-0.285247802734375
244,14.241,0.03873030262876892,-0.08194714218048249,0.00016612106752577553,0.0020271692431838,-0.4273036329181061,,0.466033935546875,-0.986053466796875,0.0019989013671875
245,14.291,-0.058968454434900786,0.14596829010842094,0.02600927457217092,-0.1754213892171768,-0.3695611058020883,,0.3105926513671875,-0.768829345703125,-0.136993408203125
246,14.341,0.03676098855473692,0.11807446406655508,0.035872464569056794,-0.2906925457084203,0.2854945090625494,,-0.2487335205078125,-0.798919677734375,-0.2427215576171875
247,14.391,-0.16221216033867236,-0.23863881442996882,0.05109553475617798,-0.1658009922168322,0.4132730691535151,,-0.5754852294921875,-1.1366424560546875,-0.099884033203125
248,14.454,-0.3920277021165971,-1.1187119806619839,0.5109409341420991,-0.0964654166794996,0.5518809892896529,,-0.94390869140625,-1.9487457275390625,0.4304962158203125
249,14.504,0.8957054449905644,-0.7750333543180488,-0.4627260274079417,-0.1256534510214886,0.3951103522171269,,0.5005950927734375,-1.6863861083984375,-0.578155517578125
250,14.554,-0.05654916356496342,0.14524611914253593,-0.04283037943804863,0.2828404984479384,-0.3498383481352759,,0.2932891845703125,-0.7533111572265625,0.222137451171875
251,14.604,-0.0113211810787315,0.1853681802401761,-0.21943022206106966,0.7639071198970904,-0.039382094164669,,0.0280609130859375,-0.4594573974609375,0.54388427734375
252,14.653,0.4440110922335214,0.4186176026982572,-0.38211651756693943,0.6819213351266556,-0.0616499185086661,,0.5056610107421875,-0.3114166259765625,0.2985076904296875
253,14.703,-0.049015069063024996,0.1282910091352929,0.04578390231391588,-0.3361129669253472,-0.3385811091020875,,0.2895660400390625,-0.757904052734375,-0.270477294921875
254,14.753,-0.466872749570431,-0.4520986556682862,-0.4561854426819507,-0.4735488693666154,-0.335799751523556,,-0.131072998046875,-1.2817230224609375,-0.9022369384765624
255,14.803,-0.2794620278829974,-0.7155091371255136,-0.019948830896730163,-0.4933372076167805,-0.3877689126486224,,0.108306884765625,-1.5172882080078125,-0.4746856689453125
256,14.853,-0.7323494076980943,-0.6770159286609658,-0.4799721100056937,-0.3878001659694285,-0.4443855405105943,,-0.2879638671875,-1.50274658203125,-0.8273773193359375
257,14.903,0.006495496917996807,-0.045875294516874554,-0.003956286483978166,-0.085921103228153,-0.1396837023007532,,0.14617919921875,-1.03240966796875,-0.0890350341796875
258,14.953,-0.15210895596222762,0.23361165293495612,0.05268122567931738,-0.2199835646630497,-0.5361574178762901,,0.3840484619140625,-0.5898284912109375,-0.1330108642578125
259,15.002,-0.027949435308507894,0.30091112933491193,0.18338166808388157,-0.5203990371496957,-0.0790663786678829,,0.051116943359375,-0.5503387451171875,-0.33538818359375
260,15.052,-0.42244602800685527,0.4853413580013447,-0.0809699951048128,0.1645567191559294,-0.6514041578896678,,0.2289581298828125,-0.2630462646484375,0.04388427734375
261,15.102,-0.37914984254090145,0.6838671682802603,-0.006982589235242476,0.1588179270307202,-0.6129755261346514,,0.23382568359375,-0.0962066650390625,0.118499755859375
262,15.152,0.016782686139161403,0.44561149226310726,-0.11224395582700825,0.2442578862362274,0.0364970416079114,,-0.01971435546875,-0.5234527587890625,0.1318511962890625
263,15.202,-0.1453109285445608,-1.0222820163370638,0.3349042834694351,0.0891644531669328,0.1164688566116892,,-0.26177978515625,-2.0115203857421875,0.4234619140625
264,15.597,-2.144990663322471,1.1319838051871405,0.547769390240332,0.2020648994978222,0.1263563825759662,,-2.2713470458984375,0.16046142578125,0.7482147216796875
265,15.647,-0.7290470522742795,0.43384074012937246,-1.3748272933694523,0.1737400653337874,0.033907659639783,Hook,-0.7629547119140625,-0.550384521484375,-1.2011871337890625
266,15.696,-0.9978313279849885,-0.5133011601869785,-1.2695147551794723,0.227193153644647,0.0497150587337615,,-1.04754638671875,-1.4859466552734375,-1.0426025390625
267,15.746,-1.2700364109038642,-0.5775461183044314,-0.8309566319809815,0.3435905632273464,0.0624678615570732,,-1.3325042724609375,-1.51483154296875,-0.488037109375
268,15.796,-1.1255223519084425,-0.353986439880576,-0.09367649106446396,0.5540388733607065,0.013500475239995,,-1.1390228271484375,-1.1864013671875,0.4603118896484375
269,15.846,0.10847440989275992,0.08402279977049398,-0.0708717685228335,0.6447515279354484,0.7024075153615099,,-0.59393310546875,-0.460052490234375,0.3880462646484375
270,15.896,0.7024270049005796,0.8451892515662058,-0.5169257584054754,0.5901740852162551,0.5593453398615171,,0.1430816650390625,0.1760101318359375,-0.0277099609375
271,15.946,1.0468848804784778,1.0536329254105312,-0.5199379932527283,0.5622375446532795,0.4311774830175403,,0.6157073974609375,0.3074798583984375,-0.0126495361328125
272,15.995,1.2308335909638832,0.7291560103235714,-0.24642880360858632,0.6129931186694206,0.4210801729951333,,0.80975341796875,0.0125274658203125,0.3095703125
273,16.045,1.3890973449400963,-0.35698273165547223,-0.30979795219503536,0.5946278201167786,0.5186292052916588,,0.8704681396484375,-1.044403076171875,0.1986083984375
274,16.095,1.3346667924064746,-1.1877840363078636,-0.44616720326385817,0.5748799304789183,0.6193652787345997,,0.715301513671875,-1.8301849365234375,0.0051727294921875
275,16.145,1.1819359587730738,-0.7536473872902015,-0.3015792238987464,0.5740628742905567,0.6666466521324488,,0.515289306640625,-1.3639678955078125,0.126312255859375
276,16.195,-0.07169438408260631,0.0851234646552691,-0.056779477268776135,0.5549065457123893,-0.5738306145513563,,0.50213623046875,-0.59619140625,0.397674560546875
277,16.245,-0.2678989613429078,0.21291776422784559,-0.1879387489725845,0.6617604753299076,-0.6861881459132203,,0.4182891845703125,-0.3324432373046875,0.2934417724609375
278,16.294,-0.180947997156781,0.22324835258075215,-0.13122059282112136,0.5067275591313115,-0.5727784414927185,,0.3918304443359375,-0.483428955078125,0.284149169921875
279,16.344,0.031022954911738898,-0.05138388782999537,0.006805231549565777,0.1312925794108158,-0.5135632267288861,,0.544586181640625,-0.902008056640625,0.1194610595703125
280,16.394,0.4443840542575064,-0.25807391364329946,0.0915634620131596,0.0880363323347947,-0.5244880160549936,,0.9688720703125,-1.1061859130859375,0.1665191650390625
281,16.444,0.36352392469623496,-0.04712559911456704,0.11100036188048298,0.0214305946987871,-0.5428939219834527,,0.9064178466796876,-0.8867340087890625,0.128997802734375
282,16.494,0.18345448893210314,0.41045336254296505,0.23902727447733874,-0.0442562856988643,-0.5512562044272719,,0.734710693359375,-0.423065185546875,0.2021026611328125
283,16.544,-0.2619055107996344,0.40517386465601557,0.045303040099974906,-0.1111189234519973,-0.5404852227136969,,0.2785797119140625,-0.43096923828125,-0.048187255859375
284,16.594,0.009477196459571301,0.3728332718305123,0.006463375363232514,-0.0173332286780111,0.0254073722408213,,-0.01593017578125,-0.6266937255859375,-0.0108642578125
285,16.643,-0.012491732411462994,0.16790949371182817,-0.028351457062636726,0.1664929428677325,-0.073160677723963,,0.0606689453125,-0.81549072265625,0.1376953125
286,16.693,0.011361514597717087,-0.08328293094661099,0.007811115524786846,0.0933802986300614,-0.1345888027850954,,0.1459503173828125,-1.069854736328125,0.100341796875
287,16.743,0.0534666769626828,-0.21635181479061671,0.061276471582903266,0.0746442172551127,-0.0747834451076297,,0.1282501220703125,-1.2107696533203125,0.135711669921875
288,16.793,-0.2356245281534309,-0.4285847582154889,-0.23869457062027602,0.0214859056648495,-0.0042860271768684,,-0.2313385009765625,-1.4283447265625,-0.2172088623046875
289,16.843,-0.442769007091377,-0.5158515017689611,-0.2204464893362929,-0.0155803502921817,0.079783483142998,,-0.522552490234375,-1.512542724609375,-0.2359771728515625
290,16.893,-0.39960126897616777,-0.26860577230624616,0.13466617108645867,0.0468152009629424,0.1560017583675822,,-0.55560302734375,-1.255279541015625,0.180908203125
291,16.942,0.00799852263539444,0.030365981165082823,-0.014128419736402276,0.4218463055072681,0.2322874630650819,,-0.2242889404296875,-0.85150146484375,0.39617919921875
292,16.992,-0.0049850420496905246,-0.016839099717062544,0.005515952475452668,0.3112926194443168,0.270817570254997,,-0.2758026123046875,-0.931640625,0.30517578125
293,17.042,-0.007239977741952008,-0.02300817606276384,0.008088711341819377,0.3316596284485257,0.2845843630783605,,-0.2918243408203125,-0.927398681640625,0.3260345458984375
294,17.092,0.052263940817989574,0.14661179511263323,-0.024263159335963458,0.1632718224581355,0.3317744388648646,,-0.279510498046875,-0.784088134765625,0.1297607421875
295,17.142,0.08360459142474225,0.22059549526117195,-0.08918303394009514,0.3748113250422777,0.3314988785341172,,-0.247894287109375,-0.654083251953125,0.264434814453125
296,17.192,0.0490106805068862,0.2445379076040407,-0.16110505312032208,0.5501522773400874,0.1650690301162612,,-0.116058349609375,-0.579071044921875,0.381500244140625
297,17.241,0.0328091489914842,0.29738842452350855,-0.0642994724697748,0.2113305084981291,0.1072110044602342,,-0.07440185546875,-0.6743927001953125,0.14581298828125
298,17.291,0.015808979615526506,0.19593182338991333,-0.039767430805255605,0.1989099485718938,0.0788277784436515,,-0.063018798828125,-0.781036376953125,0.1585235595703125
299,17.341,-0.0045172836585578025,0.027429551711767752,-0.001924044424283608,0.0699730126781233,-0.1621100570960578,,0.1575927734375,-0.9569244384765624,0.0671234130859375
300,17.391,-0.3825187678096219,-0.5168784318350229,-0.23799032958176447,0.0229772195197139,-0.1449394221064969,,-0.237579345703125,-1.5060577392578125,-0.2152557373046875
301,17.441,-0.627237059093906,-0.7773196283371007,-0.060258363764917444,0.0507083707159604,-0.104318357922031,,-0.522918701171875,-1.7705841064453125,-0.00982666015625
302,17.491,-0.21546197705354359,-0.4904814220604856,-0.36554628708342524,0.0359786614614264,-0.1066820698269811,,-0.1087799072265625,-1.484130859375,-0.32977294921875
303,17.541,-0.3792464380051719,-0.4745764182234823,-0.3118229034505335,0.047377774016649,-0.1054885034348594,,-0.2737579345703125,-1.4678802490234375,-0.26470947265625
304,17.59,-0.2304045027129781,-0.20540007174795816,-0.19324249778007252,0.115786486497615,-0.1178098982207906,,-0.1125946044921875,-1.1917572021484375,-0.0782623291015625
305,17.64,0.0003430000478469998,0.09290243231433282,0.013408614773670419,-0.1428498761216248,0.0036541572744095,,-0.0033111572265625,-0.8968353271484375,-0.1294403076171875
306,17.69,0.009869186139236305,0.1410138900490987,-0.0070691850755172855,0.0500682513700057,0.0697294156314238,,-0.0598602294921875,-0.8553009033203125,0.042877197265625
307,17.74,-0.03269716574459139,0.14905306307917887,0.012465915126955648,-0.0833431051127025,-0.2135595925024039,,0.1808624267578125,-0.8244781494140625,-0.0689544677734375
308,17.79,0.049595742412365085,-0.08326445819356376,0.01946575580940918,0.2276441926459398,-0.5017195652048224,,0.5513153076171875,-0.9255828857421876,0.2163848876953125
309,17.84,-0.07389806551629119,0.15444563313843018,-0.06163772778973603,0.3706620637021375,-0.4060971621959787,,0.3321990966796875,-0.6942901611328125,0.2770843505859375
310,17.889,-0.04158602525144631,0.5338846134940707,-0.16318100155828852,0.292299781035945,-0.0742856102123838,,0.0326995849609375,-0.4197998046875,0.1283111572265625
311,17.939,0.046617034404720106,0.5751072279915327,-0.1416827260321712,0.2392066764791147,0.0784621271781576,,-0.0318450927734375,-0.3928680419921875,0.0967864990234375
312,17.989,-0.055817244558590495,0.40054385326276576,-0.19290766744583504,0.4339127959577577,-0.1245733480742155,,0.068756103515625,-0.4933929443359375,0.2376251220703125
313,18.039,-0.0021979745680329003,0.11599208245248216,-0.02624179758404152,0.220661190053977,-0.0184791024977204,,0.0162811279296875,-0.85919189453125,0.1943817138671875
314,18.089,-0.4905974698164323,-0.6148455677255714,0.03837505525587123,0.2112527476779437,0.0504181551835677,,-0.541015625,-1.591033935546875,0.249359130859375
315,18.139,-0.3754345075088634,-0.6891772450420829,-0.09713322409583125,0.1032414234188481,0.0913776262801991,,-0.4668121337890625,-1.6796722412109375,0.00567626953125
316,18.188,-0.5337725904235266,-0.9245905342459949,0.27492692569210414,0.0834039284452198,0.0927685472717859,,-0.6265411376953125,-1.91680908203125,0.35797119140625
317,18.238,-0.7594854483359179,-0.7107534364923479,0.5729652183476291,0.1561648064170334,0.0563562264687696,,-0.8158416748046875,-1.6969146728515625,0.7288818359375
318,18.288,-0.6025392001668521,0.014959512604910241,0.20433942705513933,0.179566813088688,-0.0532227939168521,,-0.54931640625,-0.9673919677734376,0.3836517333984375
319,18.338,0.22934133334450268,0.3817563070991362,-0.17294821181609166,0.4126608631207973,0.4800432376413777,,-0.250701904296875,-0.4173126220703125,0.189056396484375
320,18.388,0.017946499001112295,0.631127808525186,-0.13412646621883997,0.2078762641419949,0.0278036767354873,,-0.009857177734375,-0.346649169921875,0.07366943359375
321,18.438,-0.32097789219923856,0.29593489775553017,-0.24409284523334118,0.6363000526452236,-0.6417176382929886,,0.32073974609375,-0.29571533203125,0.2439117431640625
322,18.488,-0.0691632746059245,0.4559055132237574,-0.22147269472354647,0.4369564404332796,-0.1352033136684245,,0.0660400390625,-0.4353179931640625,0.2114715576171875
323,18.537,0.1879359931221333,0.7262136424600818,-0.09012251786548969,0.4556547009743277,-0.1728580742606792,,0.3607940673828125,-0.150543212890625,0.358673095703125
324,18.587,0.4367410028072434,0.8189089345633958,-0.036142097426995146,0.4412771781545806,-0.1819876348880691,,0.6187286376953125,-0.0634765625,0.39776611328125
325,18.637,0.0337811338793258,-0.03270908955653962,0.013424385146182327,0.3796839678340961,-0.6908129823316117,,0.7245941162109375,-0.70159912109375,0.2879486083984375
326,18.687,-0.43497199218803817,-1.2555072431207763,-0.5150245522376201,0.347089508532331,-0.6163989941411632,,0.181427001953125,-1.993988037109375,-0.2417144775390625
327,18.737,-0.44339507581815873,-1.2531758799103343,-0.1389313491618243,0.3863329677310962,-0.5390676832400337,,0.095672607421875,-2.0300445556640625,0.18646240234375
328,18.787,-0.17602065968136793,-0.2871749017898766,0.07222143267797254,0.4016848348269405,-0.4930982964001179,,0.31707763671875,-1.0838775634765625,0.4216766357421875
329,18.836,0.0780873763152043,0.8333431089392209,-0.48773994730222486,0.3527603304894138,-0.4719767105988582,,0.5500640869140625,0.0084075927734375,-0.1767425537109375
330,18.886,0.23751310830078032,1.4892383607980322,-0.8573140976175799,0.3355814020061496,-0.4314932393554697,,0.66900634765625,0.639434814453125,-0.5545806884765625
331,18.936,0.10663850166694638,1.0916527151239235,-0.9378361525451923,0.27691135308539,-0.3329824700127411,,0.4396209716796875,0.1855926513671875,-0.676727294921875
332,18.986,-0.4729522163901927,-0.7131106370243326,-0.03993365672099508,0.1409809792684083,-0.2232726509605052,,-0.2496795654296875,-1.678131103515625,0.0974884033203125
333,19.405,-2.475558755892012,0.6529271865702791,-0.49773870100046047,0.2256912909053568,-0.2225985508138872,Hook,-2.252960205078125,-0.2968292236328125,-0.2777099609375
334,19.454,-1.525346304842654,0.0565919937615863,-1.7641932225455,0.2299510571808864,-0.2852034825770291,,-1.240142822265625,-0.876190185546875,-1.543792724609375
335,19.504,-2.0272281135850596,-0.24772736971150378,-1.4325099919918716,0.2986919683762673,-0.3699862922959969,,-1.6572418212890625,-1.1343536376953125,-1.1550140380859375
336,19.554,-1.828846390545019,-0.13090962268727313,-0.7816184224056224,0.3764217142300425,-0.484882767498144,,-1.343963623046875,-0.941162109375,-0.4524078369140625
337,19.604,-1.5419687507801438,-8.859479644685031e-05,-0.7077723155324094,0.4553309650053791,-0.5923685310535814,,-0.9496002197265624,-0.7173919677734375,-0.3409271240234375
338,19.654,-0.01747317974370971,-0.05876301339758727,-0.05313632891131015,-0.6707036392594217,0.2153759413500403,,-0.23284912109375,-0.7830810546875,-0.708099365234375
339,19.704,1.0079058784699144,0.04785408984322248,-0.4293155796983348,-0.6206713619714527,0.1255664009308519,,0.8823394775390625,-0.730010986328125,-1.045074462890625
340,19.753,1.028790678822911,0.08045659364953739,0.27648301941414893,-0.4831518037406437,0.1188022755025987,,0.9099884033203124,-0.78887939453125,-0.2032470703125
341,19.803,0.6547805230723139,0.10796382035052265,0.95102755678136,-0.3486840346709612,0.1326095025645014,,0.5221710205078125,-0.8209991455078125,0.6054229736328125
342,19.853,0.5937453045058986,0.31746128069196733,0.9750086922397454,-0.1972061988942391,0.1228743328262111,,0.4708709716796875,-0.6554718017578125,0.779296875
343,19.903,0.3016607021178779,0.13793538988478993,0.9639736970272859,-0.0890827538683977,0.0980779384460029,,0.203582763671875,-0.8532867431640625,0.8753204345703125
344,19.953,-0.1429239857261797,0.1706295185157981,-0.23301230889493785,0.806811290161604,-0.4435373890464922,,0.3006134033203125,-0.35888671875,0.4900970458984375
345,20.003,0.2165375137710912,0.8042099435463159,-0.05983418699201859,0.8388422324014114,-0.4550323104476588,,0.67156982421875,0.3194580078125,0.6871337890625
346,20.053,0.5104691548406248,0.784478879688639,-0.045156697419245995,0.850479811155398,-0.3668806986750001,,0.877349853515625,0.2951507568359375,0.7460174560546875
347,20.102,0.230305708034747,-0.4597149631319305,-0.22130049602995094,0.8744546118075232,-0.203745805637128,,0.434051513671875,-0.9346466064453124,0.6348114013671875
348,20.152,0.3094644680440912,-0.87832857909299,-0.41893876260200646,0.8790072105626883,-0.0936269626199713,,0.4030914306640625,-1.3530426025390625,0.456207275390625
349,20.202,0.8904485250154726,0.03644743034691644,-0.43628994554174627,0.9043963310664804,-0.0172510599454651,,0.9076995849609376,-0.3901824951171875,0.4679718017578125
350,20.252,0.8517395849630786,0.3008521121930739,-0.8141350694529137,0.9321133538459438,0.1070191259787036,,0.744720458984375,-0.059234619140625,0.1126251220703125
351,20.302,-0.1306344994016927,0.14619433020978057,0.08023114657317404,-0.4811094827930043,-0.6166727074095052,,0.4860382080078125,-0.5439300537109375,-0.2985076904296875
352,20.352,0.2358948392453054,-0.0539371502510515,0.4512351013782817,-0.4474966593651294,-0.5374663668093821,,0.7733612060546875,-0.808074951171875,0.0738677978515625
353,20.401,0.8424449384194509,-0.3085092482067693,0.6178154680701422,-0.4662857579025093,-0.4882130205649241,,1.330657958984375,-1.0805511474609375,0.21087646484375
354,20.451,0.6214311293192961,-0.175652492301142,0.9356515856171643,-0.4443670799525699,-0.4803755113057039,,1.101806640625,-0.96136474609375,0.5459136962890625
355,20.501,0.3051580928848636,0.12711040476558388,1.4882125372591828,-0.4483189281815579,-0.5112786746932614,,0.816436767578125,-0.6410980224609375,1.1029205322265625
356,20.551,0.02032703439297856,0.49716987823832537,0.8073391498164486,-0.5096703733195921,-0.5557838054507714,,0.57611083984375,-0.21807861328125,0.383636474609375
357,20.601,-0.428912638226261,0.4369875693460902,0.936349124320526,-0.5370810750799233,-0.560748575726261,,0.1318359375,-0.261444091796875,0.4916534423828125
358,20.651,0.007357092124837698,0.1969345689744081,-0.31821705416388624,0.8503332355826879,0.0196556761092127,,-0.012298583984375,-0.3292083740234375,0.531951904296875
359,20.7,0.002100178915641293,-0.01303881078497926,0.0150948859433917,0.7567655091151193,-0.1047113445218587,,0.1068115234375,-0.6631317138671875,0.7677001953125
360,20.75,-0.12735130001513212,-0.7097033801631615,-0.05703608692105866,0.7176322454576441,-0.0654463927885696,,-0.0619049072265625,-1.404632568359375,0.6590576171875
361,20.8,-0.4120650773492998,-1.156737988969657,0.19518310408473005,0.7579769605376262,-0.0492568498102373,,-0.3628082275390625,-1.8082275390625,0.952239990234375
362,20.85,-0.250867475710729,-0.4912524255322841,0.4121482488210426,0.8300689196924422,-0.082166303835729,,-0.168701171875,-1.047027587890625,1.239410400390625
363,20.9,-0.013875480242751898,-0.12517466603718563,0.2685203664524287,0.8763722352888088,-0.0837302165708769,,0.069854736328125,-0.6051177978515625,1.141815185546875
364,20.95,-0.031171192452293828,0.06704306939856064,-0.08004972716870506,0.766641258671019,-0.2860540049522938,,0.2548828125,-0.5482025146484375,0.6545562744140625
365,21.0,-0.2484744504331945,0.1725735966621289,0.010114373305560406,-0.0585086397343312,-0.820877404534757,,0.5724029541015625,-0.397552490234375,-0.0233001708984375
366,21.049,0.09679899407980486,0.6845747062075501,-0.2039960033642559,-0.0089977542517338,-0.7269619922483201,,0.823760986328125,-0.0020751953125,-0.210174560546875
367,21.099,0.027026066182536557,0.9625884491287869,-1.1709010080393956,-0.1040289935252268,-0.5949374347940259,,0.6219635009765625,0.163177490234375,-1.2545166015625
368,21.149,0.10180668530942238,0.6914867871298424,-0.13610772713590788,-0.1912166534808481,-0.4479369670343276,,0.54974365234375,-0.1860809326171875,-0.30706787109375
369,21.199,-0.2672613524707697,-0.20090912788848747,0.9383569598749887,-0.3290959626933288,-0.3016241454395197,,0.03436279296875,-1.101226806640625,0.6245880126953125
370,21.645,-4.075457372062233,0.8863591304408439,1.3357686417964476,-0.3672545284534544,-0.3310878652262948,,-3.7443695068359375,0.008697509765625,0.989227294921875
371,21.697,-1.831482749063969,-0.08432803212309348,-1.5345583682007986,-0.3846057857796204,-0.3793800879311564,,-1.4521026611328125,-0.9384002685546876,-1.890411376953125
372,21.747,-1.6256894675106306,0.08468819098134095,-0.2889862572070139,-0.3592634720338873,-0.4432859030575055,Hook,-1.182403564453125,-0.7518463134765625,-0.61102294921875
373,21.797,-1.426907362764989,0.029196714871517426,-0.11929881727758174,-0.1272295660058142,-0.4602172992884266,,-0.9666900634765624,-0.8513946533203125,-0.2322540283203125
374,21.847,-1.0981778102571402,0.08213592912136258,0.7448735539637329,0.0580761649362863,-0.4195126491243278,,-0.6786651611328125,-0.8240814208984375,0.7975921630859375
375,21.897,-0.0179492627386707,-0.06380077290614838,0.04677662366450153,0.591276448353886,0.2212627733941418,,-0.2392120361328125,-0.85028076171875,0.6233978271484375
376,21.946,0.017403797038369195,-0.03991354730330643,-0.005983498786141878,-0.1482548330099527,-0.3959720574538183,,0.4133758544921875,-0.948028564453125,-0.142120361328125
377,21.996,-0.004119645404746852,0.005146112429969318,-0.0036403341612973317,0.5775071193237,-0.5470731366156844,,0.5429534912109375,-0.6782379150390625,0.4797821044921875
378,22.046,0.10918758614649249,0.8366100430606482,-0.5003333333019363,0.5533754159525998,-0.57887698904882,,0.6880645751953125,0.1574249267578125,-0.049102783203125
379,22.096,0.13652972219065862,1.0090500481765101,0.07377643497261172,0.5678225621121182,-0.5334837055437164,,0.670013427734375,0.3128204345703125,0.554046630859375
380,22.146,0.574047904975992,0.6080834182731385,0.13866091344245868,0.5542994130432198,-0.451251167289633,,1.025299072265625,-0.134674072265625,0.6333160400390625
381,22.196,0.5698436299572038,-0.6325080286958817,0.513748594572289,0.5029353633359717,-0.3487507303943586,,0.9185943603515624,-1.44256591796875,0.985107421875
382,22.246,0.6548585878813256,-0.9256843375268166,-0.2620989462769396,0.4972541850433678,-0.3419218076264869,,0.9967803955078124,-1.740997314453125,0.2051849365234375
383,22.295,0.3078709228719335,-0.10012618243431193,-0.12777909288743727,0.5513136324359674,-0.3912867919718165,,0.69915771484375,-0.8679046630859375,0.37957763671875
384,22.345,0.2352837566377075,0.8109914564150993,-0.478103678552673,0.6474907675097933,-0.44194707832323,,0.6772308349609375,0.12738037109375,0.10272216796875
385,22.395,0.2513609490429448,1.3105797361608182,-0.17345820462442962,0.6692822123238089,-0.4179810919726802,,0.669342041015625,0.635589599609375,0.4345550537109375
386,22.445,-0.04099623381565909,1.1891463293989335,-0.5826471051144063,0.6332490601961421,-0.3036305111594091,,0.26263427734375,0.4517364501953125,0.0207061767578125
387,22.495,-0.1600769507433063,0.7505787436112713,-0.6835083335763678,0.5943494045279071,-0.1068237769151813,,-0.053253173828125,-0.0490264892578125,-0.092559814453125
388,22.545,-0.14630009689181378,0.19721068224696048,-0.08676023448333037,0.4026901397607854,-0.5617664054855638,,0.41546630859375,-0.5600433349609375,0.2463836669921875
389,22.594,-0.1704210617011549,-0.9663564387845184,1.3036984676054013,0.3221717627726113,-0.3814043380683424,,0.2109832763671875,-1.8414764404296875,1.6015167236328125
390,22.973,-2.5052271561972446,2.5035876709891918,0.34576821327835927,0.4757549548157281,-0.551842756783182,,-1.9533843994140625,1.7700653076171875,0.742523193359375
391,23.033,-2.4257937277825525,0.5326121997407776,0.8663313002268708,0.4881786804389353,-0.4853640402825524,Hook,-1.9404296875,-0.230438232421875,1.29315185546875
392,23.083,-2.053078319774392,0.383552648372794,0.6800569992523672,0.4265446604534463,-0.4140097162587669,,-1.639068603515625,-0.43975830078125,1.068328857421875
393,23.133,-1.2902580389057043,0.22216410783397444,0.5784974447492599,0.3266170171379287,-0.3659263738666419,,-0.9243316650390624,-0.657440185546875,0.8824615478515625
394,23.183,0.14021504299595755,0.13677447364045814,-0.10036644623026136,0.591613424670582,0.6370717324490826,,-0.496856689453125,-0.4846649169921875,0.35565185546875
395,23.232,0.06582161113547591,0.15362317109452817,-0.1191772767574194,0.6129549965589867,0.3206586472682884,,-0.2548370361328125,-0.5947723388671875,0.4614105224609375
396,23.282,0.005912831761246601,0.024055283823488094,-0.03507919584153196,0.8247181264746166,0.1376877341049966,,-0.13177490234375,-0.536102294921875,0.7817840576171875
397,23.332,0.019120652728850607,0.35417312349779395,0.19587167618959034,0.7256517492254533,0.1034102035101006,,-0.08428955078125,-0.3302001953125,0.917633056640625
398,23.382,0.3590402284455732,0.8969511392153627,0.31895308091181096,0.521063467294084,0.0862741151643232,,0.27276611328125,0.0466156005859375,0.83807373046875
399,23.432,0.34262676041870443,0.979194757715857,-0.47112970957790257,0.3432080390208189,0.0774290065124544,,0.26519775390625,0.042755126953125,-0.1289520263671875
400,23.482,0.9938786870551922,0.5901994208105733,-0.29776268884458407,0.3794968349599576,0.1352513677192547,,0.8586273193359375,-0.3264923095703125,0.0782470703125
401,23.531,1.3481418856081524,-0.001990867336073121,-0.21142293171587012,0.3608661346654791,0.2272770174440899,,1.1208648681640625,-0.9102020263671876,0.1399993896484375
402,23.581,1.573124201296222,-0.22145648242982718,-0.42729107929237187,0.2555140270593631,0.2560923409446596,,1.3170318603515625,-1.1560211181640625,-0.1802978515625
403,23.631,1.3955664685350888,-0.05476132531523492,-0.49183934916732797,0.181949606384165,0.2733283093554013,,1.1222381591796875,-1.0006256103515625,-0.3168182373046875
404,23.681,1.062015266524865,0.24483520748230125,-0.3220086189232002,0.1138172980643043,0.2479741288295524,,0.8140411376953125,-0.7176361083984375,-0.2117462158203125
405,23.731,-0.11595719390059878,0.12914712422754926,0.00689007060853334,-0.0532747902174752,-0.6675624185099738,,0.551605224609375,-0.614349365234375,-0.03277587890625
406,23.781,-0.07076403432795908,0.1543789352650441,-0.07843593147029321,0.4529629312681384,-0.3782896690935841,,0.307525634765625,-0.6708984375,0.3408660888671875
407,23.83,-0.4205497824569204,-0.0004323887174502161,0.46728478438870014,0.4556918007777164,-0.3703178488631704,,-0.05023193359375,-0.8272857666015625,0.8905792236328125
408,23.88,0.029087121601999,0.3134283857944863,-0.21060489932550708,0.5577264354251789,0.0768013550004365,,-0.0477142333984375,-0.5141448974609375,0.3454742431640625
409,23.93,-0.056033658479453505,0.39431783626583883,-0.5396386277522082,0.8074149766242786,-0.083545255159141,,0.0275115966796875,-0.193603515625,0.26495361328125
410,23.98,-0.0812171228172977,0.5571576843857292,-1.0709601756410096,0.7188368782466983,-0.0340064294579227,,-0.047210693359375,-0.1376190185546875,-0.3525390625
411,24.03,-0.013551602282279918,0.01254518845980368,0.01561964842331709,-0.7796628179731001,-0.5602892731807174,,0.5467376708984375,-0.506134033203125,-0.6301727294921875
412,24.08,1.125539434555507,-0.7066438617030298,-0.8086778861717127,-0.8873757651393777,-0.5016425722804304,,1.6271820068359375,-1.1054840087890625,-1.576324462890625
413,24.429,-3.1956686220628674,0.6640002608841791,0.5727457603089923,-0.921426088157346,-0.6428732119066173,,-2.55279541015625,0.3663787841796875,-0.1330413818359375
414,24.478,-0.9418950400908502,-0.4217013954355542,-1.0088884277967871,-0.9288983745835964,-0.6722264609892877,Hook,-0.2696685791015625,-0.6958770751953125,-1.69659423828125
415,24.528,-1.348563948137948,-1.1753493016494234,-0.764479760111065,-0.9110073045231176,-0.7036207108332607,,-0.6449432373046875,-1.4683837890625,-1.4118194580078125
416,24.578,-1.626353657867876,-1.112924323277753,-0.43054214742636066,-0.8019944530846784,-0.7331499225163134,,-0.8932037353515625,-1.5191497802734375,-0.9759521484375
417,24.628,-1.5086532541078652,-0.8746357944106233,-0.029305052889099514,-0.6385272203982738,-0.8036056466859902,,-0.705047607421875,-1.332672119140625,-0.409332275390625
418,24.678,-1.0377061568909474,-0.5283141030235967,-0.6512219680465834,-0.5252897941834164,-0.8875749313050099,,-0.1501312255859375,-0.9203033447265624,-0.8932037353515625
419,24.728,0.058236876058594844,0.38699993702986524,-0.4736281851818896,-0.3423114457695462,-0.9238187880039052,,0.9820556640625,0.0272979736328125,-0.60467529296875
420,24.777,0.41707523910839095,0.710813961089686,0.5815057861138582,-0.2401811824240753,-0.8955926075712966,,1.3126678466796875,0.278961181640625,0.4746551513671875
421,24.827,0.341410310092086,0.5803496305153448,1.069437788435024,-0.235460403449904,-0.8109181811188515,,1.1523284912109375,0.0116424560546875,0.9316558837890624
422,24.877,-0.3198706516577946,-0.702747428434316,0.16791447707307078,-0.2781971076252599,-0.6785437473609196,,0.358673095703125,-1.4083099365234375,-0.03643798828125
423,24.927,-0.4135146377898421,-1.0069893233164064,-0.005141542765737861,-0.2655483716380528,-0.6287245987273421,,0.2152099609375,-1.7566986083984375,-0.211639404296875
424,24.977,0.2584260234658686,0.42008520488227274,0.5261846026855773,-0.310162965635115,-0.6051756611044439,,0.8636016845703125,-0.3367462158203125,0.279266357421875
425,25.027,0.34778348584680774,1.2962028895550293,0.15431699704531726,-0.3465238221665119,-0.5317941508719423,,0.87957763671875,0.501800537109375,-0.1391448974609375
426,25.077,0.02837188813130881,0.9851434530066279,0.15159591097020536,-0.4124315685186872,-0.4019107046421287,,0.4302825927734375,0.150970458984375,-0.2260589599609375
427,25.126,-0.1859983022685897,0.4777325051532705,0.10145969357695689,-0.2077442186668738,-0.3559049184795272,,0.1699066162109375,-0.4364013671875,-0.092681884765625
428,25.176,-0.3294943613520555,-0.9638138790188827,0.7028811861031009,-0.4437890326608074,-0.2304953379145555,,-0.0989990234375,-1.8358154296875,0.2710418701171875
429,25.595,-2.5373067718775815,0.9458538692555398,-0.22572808495084384,-0.4522189575854811,-0.2157430511744565,,-2.321563720703125,0.074951171875,-0.66729736328125
430,25.645,-1.6171144645373627,0.21549379810518476,-0.8480328614443744,-0.4122512312996797,-0.1980165641467378,Hook,-1.419097900390625,-0.6775360107421875,-1.2521209716796875
431,25.695,-1.623721658972749,-0.09801848151061276,-0.8863138314782233,-0.3453814126691561,-0.1913791296758741,,-1.432342529296875,-1.019134521484375,-1.225311279296875
432,25.744,-1.3152144117277005,-0.1361824871716436,0.020913357726797227,-0.0870477473028115,-0.1681044263761379,,-1.1471099853515625,-1.1182098388671875,-0.0648956298828125
433,25.794,-0.6613382465856525,-0.07244830129298174,0.6894717312394673,0.0927454516990722,-0.1782907612340901,,-0.4830474853515625,-1.05218505859375,0.780731201171875
434,25.844,0.015492248795917193,0.14544239847631502,-0.03496289411840095,0.2337314562621265,0.1030166628584172,,-0.0875244140625,-0.821685791015625,0.1975250244140625
435,25.894,1.4298147640867676e-06,-3.103092679035413e-06,3.6144563674289643e-06,0.7587390672531402,-0.2874741561227359,,0.2874755859375,-0.6239013671875,0.726715087890625
436,25.944,0.4245747746449237,0.34607824908438245,-0.9281457881797297,0.7554127509377214,-0.2770396052378888,,0.7016143798828125,-0.2835235595703125,-0.202301025390625
437,25.994,0.6656675038300426,-0.13486104903647633,-0.6198977277286515,0.7934091247297249,-0.1553469004668324,,0.821014404296875,-0.7361602783203125,0.16387939453125
438,26.043,0.720759901946066,-0.7883855755881265,-0.6825258976774851,0.8064713908980007,-0.0438732767648715,,0.7646331787109375,-1.37908935546875,0.1231689453125
439,26.093,0.9561211876998333,-0.6293838751367121,-0.3525692806814772,0.7843909349952461,0.0403497033248333,,0.915771484375,-1.2491455078125,0.431182861328125
440,26.143,0.030220026165362124,-0.03618343153345249,0.010596842632505488,0.2810592551920391,-0.6254196222721379,,0.6556396484375,-0.7850189208984375,0.2299041748046875
441,26.193,0.19227034713611102,0.7486533878201193,0.010124586219221382,0.2049634195012376,-0.6011409077467015,,0.7934112548828125,-0.0335235595703125,0.173919677734375
442,26.243,0.060212359361083045,0.6742520181178786,-0.11683850637854654,0.1414368006105316,-0.532774701185792,,0.592987060546875,-0.1634979248046875,0.0028533935546875
443,26.293,0.24022091937134982,0.5581346872992048,0.020320135269529777,0.1017294189241481,-0.4414044468395877,,0.6816253662109375,-0.3345184326171875,0.111602783203125
444,26.342,-0.0006675387272881972,-0.3093643228713161,0.23308380372610268,0.0086176359553238,-0.3325614596257257,,0.3318939208984375,-1.252410888671875,0.2412109375
445,26.781,-2.3275941726610005,3.0183539461469118,1.1270672313855914,0.0040031660356383,-0.3720125076219379,,-1.9555816650390625,2.0901336669921875,1.1307830810546875
446,26.831,-2.2767176381895604,0.9880607190679546,0.2660202968520136,-0.065814878342326,-0.2774500600645603,,-1.999267578125,0.0294036865234375,0.202789306640625
447,26.901,-2.116496813091413,0.4537899339183331,1.0856694181242683,-0.1262009449067586,-0.2018697378961005,Hook,-1.9146270751953125,-0.517791748046875,0.962066650390625
448,26.951,-1.5932399680664182,0.7453928903000296,1.134718565226349,-0.2273813657737163,-0.1509487083007931,,-1.442291259765625,-0.217254638671875,0.909942626953125
449,27.0,-1.143674691600735,0.9075459825012893,1.223704471184352,-0.3636000814640856,-0.0897653898429225,,-1.0539093017578125,-0.0202484130859375,0.861572265625
450,27.05,-0.666452434118236,1.1033507673784868,0.23374670194415836,-0.6025460897164079,-0.052103068883861,,-0.614349365234375,0.3063507080078125,-0.36798095703125
451,27.1,0.0617914621781886,0.6965296133384445,-0.08000786331813947,-0.7834409700251577,-0.0285863454389989,,0.0903778076171875,0.0753173828125,-0.863128662109375
452,27.15,0.084438172873482,-0.5789933557384725,-0.09540050074806827,-0.8857602955884742,0.078548280295357,,0.005889892578125,-1.0417022705078125,-0.978424072265625
453,27.2,0.8702774087613689,-1.4095842901994589,0.07373528382692207,-0.9412203933261416,0.1462783853238689,,0.7239990234375,-1.743743896484375,-0.85736083984375
454,27.26,0.8914580287951109,-1.6305356780491551,1.4410329776736033,-0.9467404512412352,0.2081541957872984,,0.6833038330078125,-1.9454803466796875,0.5150299072265625
455,27.309,0.9977262964073316,-0.8511729682294358,1.773429324556207,-0.9230583921318676,0.2222593774620191,,0.7754669189453125,-1.2262115478515625,0.8734588623046875
456,27.359,0.02004870886403931,-0.05593931697208654,0.014326533639131944,0.2481010370109285,-0.3279890108625232,,0.3480377197265625,-0.9710845947265624,0.2487030029296875
457,27.409,0.148633117642345,0.8509420935190473,-0.03651665350807862,0.1592585985668416,-0.3484219360685925,,0.4970550537109375,-0.074432373046875,0.112762451171875
458,27.459,0.2323428761160795,1.2969836207128318,0.4098142440118955,0.0211963257210224,-0.351626240094858,,0.5839691162109375,0.361053466796875,0.429656982421875
459,27.509,-0.025634989104582673,1.3008764343432695,0.23682796275162735,-0.1437522429761872,-0.2880098670342702,,0.2623748779296875,0.3531951904296875,0.0991668701171875
460,27.559,-0.0002529680322119199,-0.0007200432520718669,-2.3516748357970546e-05,-0.0326427833326653,0.3313052595068506,,-0.3315582275390625,-0.9437408447265624,-0.03082275390625
461,27.608,0.5402587669656986,-0.9847900618574164,-0.2138930995439227,-0.1900004160219747,0.4040282982156987,,0.13623046875,-1.88287353515625,-0.3876953125
462,28.027,-1.591037130620149,0.7759449134275882,-0.7086087107042495,-0.1565904063329466,0.3842131135204761,,-1.975250244140625,-0.1359100341796875,-0.853179931640625
463,28.077,-0.481933414447759,0.054813437927928366,-1.3730363858391963,-0.1516864993553989,0.335235775005366,Hook,-0.817169189453125,-0.8764190673828125,-1.5159454345703125
464,28.147,-0.3627649757906729,-1.0865183566262733,-1.880566018140352,-0.0538585713830341,0.2662938620999521,,-0.629058837890625,-2.04901123046875,-1.9324798583984375
465,28.197,-0.05411629597666731,0.2590156109941092,0.031078769875796178,-0.1191334931312935,-0.2031183711719798,,0.1490020751953125,-0.713165283203125,-0.0855712890625
466,28.246,0.6030789307889333,0.635741339769814,0.3899734079208789,0.1578690960309285,-0.2558688231173168,,0.85894775390625,-0.31884765625,0.5425872802734375
467,28.296,0.7215973831329902,0.8949542837478018,-0.1864740321165611,0.3446860782638528,-0.2495329879607599,,0.97113037109375,-0.014068603515625,0.147308349609375
468,28.346,0.6602535798512776,0.5970942254052461,0.0445612443672892,0.4750045740151017,-0.1516971037424724,,0.81195068359375,-0.272705078125,0.514068603515625
469,28.396,0.017109884921806096,-0.0446075217958638,0.025659332878880725,0.4986172698939304,-0.3155011990625689,,0.332611083984375,-0.867156982421875,0.498809814453125
470,28.446,0.3195328788440635,-0.5460141098633128,-0.5491305952303565,0.5116116613289566,-0.1751265449840615,,0.494659423828125,-1.3919525146484375,-0.0454254150390625
471,28.496,0.6324801542703469,-0.110648282322798,-0.5466990179924961,0.5398832418021581,-0.0830807588155906,,0.7155609130859375,-0.9494781494140624,-0.0086822509765625
472,28.545,0.6782642504972693,0.4754583777593361,-0.3663268930054958,0.5260337122019416,-0.0162395336824181,,0.6945037841796875,-0.3748931884765625,0.159637451171875
473,28.595,0.7817111597986767,1.0347239522858058,-0.47915419435594886,0.4591625722908751,0.0480990992518017,,0.733612060546875,0.14739990234375,-0.0205230712890625
474,28.645,-0.11220325801920888,0.17031555679655042,-0.13416292587469003,0.6188008274583803,-0.4596153673942089,,0.347412109375,-0.52734375,0.4154052734375
475,28.695,0.2245478507243961,-0.16111117508480666,0.04153721319090897,0.5550950921888389,-0.3366856697834164,,0.5612335205078125,-0.9443359375,0.5642242431640625
476,28.745,0.2578616516476828,-1.2357947828516136,-0.9723145465379085,0.5189984731991769,-0.2251705749148172,,0.4830322265625,-2.0686187744140625,-0.466644287109375
477,29.016,-7.783654009372578,-1.4619620364020154,-7.045709465208002,0.9274427466620824,-0.6524131646460152,,-7.1312408447265625,-1.7453765869140625,-6.34283447265625
478,29.183,-2.6381352367794824,1.1758112567322834,0.0016419381898482577,0.899784800775373,-0.6717503490841699,,-1.9663848876953125,0.8525848388671875,0.668182373046875
479,29.243,-2.605742774182519,0.40886731261566983,0.46699593062162803,0.8788885154531083,-0.6129754401981444,Hook,-1.992767333984375,0.0319671630859375,1.161407470703125
480,29.293,-2.1453830877432467,0.3589340446199556,-0.06820935882421275,0.8128350791927272,-0.5536319891104342,,-1.5917510986328125,-0.1261444091796875,0.6086883544921875
481,29.343,-1.8436872434037133,0.04422315808282695,0.08426833693759184,0.7560387628771914,-0.4708234738724633,,-1.37286376953125,-0.5332183837890625,0.7512664794921875
482,29.393,-1.4857044896480454,0.008006350123367367,-0.1136739201809992,0.6785342048734908,-0.3909779271480454,,-1.0947265625,-0.6680908203125,0.5108489990234375
483,29.443,0.0649380941157574,0.09762705005850447,0.07781775766815513,-0.6233075679251873,0.4614529866938824,,-0.396514892578125,-0.5961151123046875,-0.47515869140625
484,29.492,-0.1436990737085061,0.365989227317824,0.11857247083939237,-0.3082066051732625,-0.3499063490991311,,0.206207275390625,-0.5251922607421875,-0.1701507568359375
485,29.542,0.7539978319778674,0.681407370785718,0.30060558749417504,-0.4257646693022764,-0.3404082959518201,,1.0944061279296875,-0.1693878173828125,-0.0997314453125
486,29.592,0.7478401082488307,0.0934132609607472,0.9603706430801062,-0.4828139641057279,-0.2434318644074193,,0.99127197265625,-0.7559661865234375,0.4920806884765625
487,29.642,0.41063165162268633,-0.5949371345443198,0.6560167702084521,-0.492904891025299,-0.1111884167366887,,0.521820068359375,-1.459625244140625,0.166168212890625
488,29.692,0.4104427665706788,-0.7022046085944362,0.6971660971339719,-0.4826637055318009,-0.0093112617496337,,0.4197540283203125,-1.577972412109375,0.2145233154296875
489,29.742,0.02631021426201474,-0.019230116752089188,0.015183817195369653,0.619698244866019,-0.7318074615192353,,0.75811767578125,-0.554107666015625,0.4375152587890625
490,29.791,0.42560319661674373,1.2716352241919737,-0.29491242038096077,0.5105854549797421,-0.7313944840473188,,1.1569976806640625,0.685272216796875,0.05328369140625
491,29.841,-0.13790342960575852,1.2572907433662857,-0.2689896456223044,0.4673667271929605,-0.6546575799963835,,0.516754150390625,0.5890045166015625,0.0843048095703125
492,29.891,-0.5462799842242982,0.8939676745450085,-0.01532677907848129,0.3594676898577131,-0.5186768348102357,,-0.0276031494140625,0.0961456298828125,0.2920074462890625
493,29.941,-0.008787288536001608,-0.0630213635914798,-0.005385580215936228,-0.0851460847230352,0.1376055337296234,,-0.146392822265625,-1.0499114990234375,-0.0897216796875
494,30.34,-1.94499913463955,1.3268385430632206,0.05898457297611326,-0.0441369809735067,0.0907979845010748,,-2.035797119140625,0.331939697265625,0.0150299072265625
495,30.39,-0.9138407595272091,0.3243181632312432,-0.8926049514894642,-0.0715218433203637,0.0653309934024785,,-0.9791717529296876,-0.670989990234375,-0.9639739990234376
496,30.439,-0.6830706211041576,-0.3130421593071748,-0.5418035762880136,-0.0793050812135777,0.0706220058489674,Hook,-0.753692626953125,-1.307403564453125,-0.62091064453125
497,30.489,-0.4116542856658051,-0.14296538673899073,-0.6129485198535722,-0.1358424868483952,0.0199253041779449,,-0.43157958984375,-1.1334991455078125,-0.7487640380859375
498,30.539,-0.3424751004866794,0.028420560031769293,-0.39217466439295506,-0.15976884313495,-0.0246040067366794,,-0.31787109375,-0.95843505859375,-0.5518951416015625
499,30.589,-0.3172316480319046,0.1400170099113036,-0.6405914118046727,-0.1870049792571822,-0.0714888501803421,,-0.2457427978515625,-0.8398284912109375,-0.827117919921875
500,30.639,-0.4301809288909984,0.13124344679028166,-0.6848371393070752,-0.171109053156641,-0.1194509484222484,,-0.31072998046875,-0.846954345703125,-0.8547210693359375
501,30.689,0.003829777419804198,0.015849935293101636,0.015363519990787,-0.6960030674910288,0.1709440352323042,,-0.1671142578125,-0.691619873046875,-0.6703948974609375
502,30.738,-0.2610698956338187,0.08530165297723791,-0.3543553564932529,-0.6641890888747214,0.0782092791708688,,-0.3392791748046875,-0.65997314453125,-1.016510009765625
503,30.788,0.013834376087695888,-0.04450407290284797,-0.058796364602714646,-0.797344215164824,-0.1843925526232416,,0.1982269287109375,-0.6376800537109375,-0.84246826171875
504,30.838,0.2406965288333422,-0.06549379803964317,-0.006083939649200842,-0.665702030072578,-0.2734788862057203,,0.5141754150390625,-0.78326416015625,-0.6464080810546875
505,30.888,0.6067739062139927,-0.53675255683605,-0.058244589431496685,-0.4909000611551409,-0.2915567822625698,,0.8983306884765625,-1.3701171875,-0.5278167724609375
506,30.938,0.7024865296352911,-0.5344449153558739,0.2689275851426861,-0.3524718057080876,-0.2869086119662712,,0.9893951416015624,-1.4309234619140625,-0.0687255859375
507,30.988,0.6681993575964797,0.1543854329763642,0.2921746169747544,-0.3168904497704426,-0.3010999588097703,,0.96929931640625,-0.75006103515625,-0.010009765625
508,31.038,0.6672389137838957,0.8047673321807557,0.39418481397121974,-0.2963367238997634,-0.3166630637551667,,0.9839019775390624,-0.101165771484375,0.11309814453125
509,31.087,0.4573540792717513,0.7323249759471074,0.3499618161592797,-0.3034160641787141,-0.2817511453376237,,0.739105224609375,-0.1819305419921875,0.058837890625
510,31.137,0.6130294135869412,0.47878999948500167,0.3512509444858,-0.3552244907595648,-0.2481918998896213,,0.8612213134765625,-0.4267425537109375,0.00714111328125
511,31.187,0.5349640366405641,-0.5631245507636788,0.0960704327779795,-0.4218825114517572,-0.1903319838672484,,0.7252960205078125,-1.4532012939453125,-0.3180999755859375
512,31.237,0.6280566965634093,-1.1119076622926842,-0.36225889803342215,-0.4619013560189471,-0.1632641042178406,,0.79132080078125,-1.9869384765625,-0.817962646484375
513,31.287,0.0743673298030055,-0.6284350278093819,-0.06326702253770827,-0.3813458744236202,-0.1639444377751195,,0.238311767578125,-1.5403594970703125,-0.439453125
514,31.337,-0.0016423644440722862,0.0046845669742321405,0.0016361910458688178,-0.3297386082189924,-0.3142186583893848,,0.3125762939453125,-0.891571044921875,-0.3114013671875
515,31.386,0.0039447294467171,0.2548851740426553,0.06626927228191809,-0.2516307469049061,0.0149768339389046,,-0.0110321044921875,-0.71282958984375,-0.185333251953125
516,31.436,0.03879103710936729,0.17414707441629929,-0.07561629981288975,0.3982838864614194,0.2001832490234298,,-0.1613922119140625,-0.72454833984375,0.314605712890625
517,31.486,0.06286545940880861,0.13515458156734295,-0.08467089947995071,0.5308971940517093,0.3667137260103711,,-0.3038482666015625,-0.6532440185546875,0.40924072265625
518,31.536,0.053971571101982,0.21897854100934178,-0.11697564972204216,0.471174853257097,0.2124340955160445,,-0.1584625244140625,-0.6429290771484375,0.34344482421875
519,31.586,0.011187024466739415,0.025686331020114528,-0.013947177376855913,0.4771756063315868,0.3574547246620519,,-0.3462677001953125,-0.7950592041015625,0.43170166015625
520,31.636,-0.3077649359663056,-0.108558393389241,0.5278774739129715,0.4358961427700085,0.3179980034868194,,-0.625762939453125,-0.9618377685546876,0.9411468505859376
521,31.685,-0.2581674945358715,-0.18679067014669948,1.0139128080432271,0.392308632340659,0.273341904878191,,-0.5315093994140625,-1.07159423828125,1.3912811279296875
522,31.735,-0.010396185421398807,-0.48330792380055587,0.6626534390309284,0.3152208570151346,0.2125347227817262,,-0.222930908203125,-1.41064453125,0.970672607421875
523,31.785,0.10319416319896049,-0.5627441953385027,0.6980605447469731,0.3043463913185788,0.1680745342927105,,-0.06488037109375,-1.5017547607421875,0.998077392578125
524,31.835,0.09808546903964449,-0.35948343069229793,0.5138231997402887,0.3801002034664705,0.1410847366177695,,-0.042999267578125,-1.275177001953125,0.8901214599609375
525,31.885,0.024113427783606395,-0.1723657832790385,0.07984204973704295,0.4484838030526756,0.1409347168461064,,-0.1168212890625,-1.0572357177734375,0.5238494873046875
526,31.935,0.0062767206561488015,0.15630705920486765,-0.02767751385750819,0.1743590704206563,0.0395103632342738,,-0.033233642578125,-0.827606201171875,0.14654541015625
527,31.985,-0.0161527211511501,0.331072791540831,-0.056909539335789905,0.1694097301031526,-0.0480283315027126,,0.0318756103515625,-0.6533355712890625,0.1123046875
528,32.034,-0.29010894633146633,0.40681147847563204,0.05085335932350654,-0.1240393565625363,-0.5776303086361538,,0.2875213623046875,-0.4031829833984375,-0.0503997802734375
529,32.084,0.046285061851052633,0.5250837002921167,0.15890815542357634,-0.0396708638751408,-0.5259653043598849,,0.5722503662109375,-0.3247528076171875,0.1251678466796875
530,32.134,-0.22875798371983014,0.24348959909783197,-0.016042966877032896,0.0657451371358713,-0.6839276614542051,,0.455169677734375,-0.4844818115234375,0.03192138671875
531,32.184,-0.035309654877422325,0.03713734360305587,0.00467103599581048,-0.1247940881293985,-0.6862038199164848,,0.6508941650390625,-0.6845855712890625,-0.0861053466796875
532,32.234,0.012361354600764374,-0.010015906131799368,0.0012169395448455023,0.1206136806789626,-0.7747022440320481,,0.7870635986328125,-0.637725830078125,0.077484130859375
533,32.284,0.045799432379666105,-0.07361576065425335,-0.020060475581924087,-0.2629155093202532,-0.5146558898859589,,0.560455322265625,-0.900848388671875,-0.2454833984375
534,32.333,0.039476484418909885,-0.7146885929221508,0.19989713407162835,-0.2813230622692661,-0.4140147265185901,,0.4534912109375,-1.58819580078125,-0.056182861328125
535,32.383,-0.013711663737336788,-0.6147101276861019,0.0877069147040011,-0.3307097817944358,-0.3530213561201493,,0.3393096923828125,-1.4976806640625,-0.221710205078125
536,32.433,-0.11396550718943155,0.15621134175103113,-0.01897953267735679,0.1206120916741347,-0.5865607220331815,,0.47259521484375,-0.6477813720703125,0.078704833984375
537,32.483,-0.200051341173335,0.737747819213973,0.24076672027297713,0.0533428490499604,-0.58625129234521,,0.386199951171875,-0.07122802734375,0.2839813232421875
538,32.533,-0.43605453456590015,0.787740073680326,0.5666151174949418,-0.0363060318925891,-0.5553630062455877,,0.1193084716796875,-0.0433197021484375,0.5364227294921875
539,32.583,-0.029600118640087394,0.26611018609176107,-0.06707731287740026,0.2444206011585967,-0.1072368373900874,,0.07763671875,-0.697967529296875,0.175933837890625
540,32.632,0.8317581997706173,-1.0349107444160375,-0.40772884418601774,0.0639044617797942,-0.0077345980809452,,0.8394927978515625,-2.0328369140625,-0.3438262939453125
541,32.971,-2.4370516460732223,1.9287030207699782,-0.42824102817658866,-0.005699428879714,-0.1585024517372847,,-2.2785491943359375,0.9413604736328124,-0.433868408203125
542,33.021,-1.307633263436605,0.6115121615008144,-1.3980654327920037,-0.0571766454088238,-0.22691426929598,,-1.080718994140625,-0.360809326171875,-1.4537506103515625
543,33.071,-1.2352975146463576,0.018295076422363832,-1.2309058663103398,-0.0793599827321354,-0.2887795703104199,Hook,-0.9465179443359376,-0.9360809326171876,-1.306884765625
544,33.121,-1.27649179301581,-0.4387961291676369,-1.0363592321929642,0.0099387489355605,-0.3553339561017476,,-0.9211578369140624,-1.3734893798828125,-1.027069091796875
545,33.171,-1.1631276621558824,-0.3956769198359219,-0.7760346874847692,0.0686529500309934,-0.460750342819945,,-0.7023773193359375,-1.2811126708984375,-0.7151031494140625
546,33.221,-0.6354966967379653,-0.2318510868325755,-0.5842641849586628,0.1158146418008781,-0.5793748705660903,,-0.056121826171875,-1.0414276123046875,-0.4898681640625
547,33.27,0.019486656819068526,-0.02407235031777033,-0.030449131858901746,-0.7844620594061155,-0.448668250407494,,0.4681549072265625,-0.5783233642578125,-0.7315216064453125
548,33.32,0.2744419158967185,0.19572957482384157,0.33666086724665034,-0.718984166019053,-0.513720315548594,,0.7881622314453125,-0.40057373046875,-0.2801971435546875
549,33.37,-0.15048194411975058,0.09251066291394083,0.039228458416701084,-0.3903939034614203,-0.8316342878697506,,0.68115234375,-0.4187469482421875,-0.1775665283203125
550,33.42,-0.051334167502584016,0.044194360559776324,-0.004298772651995478,0.0968127964651173,-0.756320739768209,,0.704986572265625,-0.60693359375,0.0590362548828125
551,33.47,0.003098355251314966,-0.23915230731756132,-0.5478564570436837,0.1413126462094072,-0.693373812717435,,0.69647216796875,-0.9524993896484376,-0.4460296630859375
552,33.52,-0.14240587173009733,-1.1536506360570056,-0.535106870149774,0.2309818875303796,-0.6171678346207223,,0.474761962890625,-1.9192047119140625,-0.353363037109375
553,33.569,-0.163677736641757,-1.0562292045105943,-0.7692174538719323,0.2870761262141702,-0.598339601876132,,0.434661865234375,-1.8237457275390625,-0.5391998291015625
554,33.619,0.011219257972231222,-0.3148794531933372,-0.5447062136183235,0.3377646545170034,-0.6223866990590188,,0.63360595703125,-1.0515899658203125,-0.28033447265625
555,33.669,-0.017308992417639835,0.46770301708936557,-0.07891061863851068,0.4297488633704061,-0.6623437824567023,,0.6450347900390625,-0.2087860107421875,0.2430572509765625
556,33.719,-0.18251129669151145,0.8845483979720934,0.25463090983168024,0.4740271701475692,-0.677399602355574,,0.4948883056640625,0.2368316650390625,0.60333251953125
557,33.769,-0.4440702870129608,0.9333090083030993,0.6892712767425933,0.4052275566879318,-0.6458677723645233,,0.2017974853515625,0.2353515625,0.9986419677734376
558,33.819,0.0314093524443021,0.45568057073007473,-0.2940067808521245,0.5421520198785071,0.0578223163114896,,-0.0264129638671875,-0.3831939697265625,0.2472381591796875
559,33.869,0.2557072963363938,-0.6421850393518475,-1.058812052648281,0.3986598116384384,0.1943669643051438,,0.06134033203125,-1.5417938232421875,-0.667755126953125
560,34.307,-2.1468701819547125,0.684846850714528,-0.7461552519089352,0.3696814651923495,0.1155962487093501,,-2.2624664306640625,-0.2380828857421875,-0.3789520263671875
561,34.357,-1.3496637176481936,0.24761771961972945,-1.8906906454658094,0.3376251289516707,0.050559060672119,Hook,-1.4002227783203125,-0.6924591064453125,-1.553497314453125
562,34.407,-1.3252641329758916,-0.18377427473360486,-1.5810963616829607,0.3691049211193436,-0.0791703829758917,,-1.24609375,-1.1102447509765625,-1.2131500244140625
563,34.457,-0.9259946743872493,0.1783149997204222,-1.7226877472926696,0.3418067119294172,-0.2348630825903742,,-0.691131591796875,-0.73516845703125,-1.39044189453125
564,34.506,0.09283285145105291,0.20300990884164616,0.15316372586713456,-0.6022783790273051,0.3429091453963654,,-0.2500762939453125,-0.546875,-0.41259765625
565,34.556,-0.015481165274775194,0.5775318431439523,0.17669293188465995,-0.6906491901703872,0.1152561394127248,,-0.1307373046875,-0.140838623046875,-0.5093536376953125
566,34.606,0.4022461358505244,1.1628063586564326,-0.6063447763078176,-0.6611144701740514,-0.1135467108291631,,0.5157928466796875,0.4173736572265625,-1.26318359375
567,34.656,0.7292843856459527,0.6942377399055091,-0.24558727566664346,-0.4978205281992992,-0.1636752090806098,,0.8929595947265625,-0.161346435546875,-0.7366943359375
568,34.706,1.1826562056957841,0.27590981202107634,-1.579437083953674,-0.2938747790029312,-0.1977606644214033,,1.3804168701171875,-0.6610565185546875,-1.8675079345703125
569,34.756,1.1842882039238234,-0.5884118249329537,-0.898443237643328,0.0119634055025444,-0.1300428507636767,,1.3143310546875,-1.5798492431640625,-0.8865814208984375
570,34.806,0.9653181669152818,-0.32478727362833615,-0.7144892330688901,0.3260857313407803,-0.1508622530065932,,1.116180419921875,-1.259307861328125,-0.3921356201171875
571,34.855,0.9141557508168976,0.3795462878861986,-0.0269899238094109,0.54020932213317,-0.1362898058237274,,1.050445556640625,-0.454132080078125,0.5081787109375
572,34.905,0.47546174372487837,0.642518233637578,0.09359212364149982,0.5629677357653906,-0.1000997797126216,,0.5755615234375,-0.1798095703125,0.6537322998046875
573,34.955,0.5918575687492076,0.8183233665592095,-0.2703576546845873,0.5071077854569326,-0.0482181148445424,,0.64007568359375,-0.0425567626953125,0.2361602783203125
574,35.005,-0.07635788125938736,0.06576761665393815,-0.0524916421660942,0.6238073261104077,-0.6719999711031374,,0.59564208984375,-0.513031005859375,0.4094696044921875
575,35.055,0.005198657520453898,-0.051528931025591196,-0.0009513588350527936,-0.0184594695366305,-0.1003616452139211,,0.105560302734375,-1.0463104248046875,-0.019317626953125
576,35.105,-0.005876187076685108,0.03548966277002563,-0.016210754812192696,0.4154822147671069,-0.1489273345376226,,0.1430511474609375,-0.8639678955078125,0.3946380615234375
577,35.154,-0.036042503123067116,0.11402422421955094,-0.11334394981619345,0.7049879970078551,-0.2187512433574421,,0.182708740234375,-0.5780181884765625,0.5745697021484375
578,35.204,-0.011096591538023701,0.3995692560722084,-0.03280953538544583,0.0818368360333922,-0.0276676364598987,,0.016571044921875,-0.5966949462890625,0.0489959716796875
579,35.254,-0.016686635769006086,0.05450335297966569,-0.007140388420800406,0.1298982516140978,-0.2904750879174436,,0.2737884521484375,-0.8942718505859375,0.117156982421875
580,35.653,-2.098349477563751,3.12700993417075,1.8975986312003894,0.1051426404165361,-0.3302678125246886,,-1.7680816650390625,2.1883544921875,1.9968414306640625
581,35.736,-2.4396799651345353,0.24604538032845968,1.007549493626658,-0.0352598860650439,-0.3307169524392226,Hook,-2.1089630126953125,-0.6970977783203125,0.974273681640625
582,35.786,-1.82084606200342,0.520630042288708,1.0211428329557508,-0.218554761528231,-0.3885798266518575,,-1.4322662353515625,-0.378509521484375,0.81976318359375
583,35.836,-1.3488031138112273,0.6994326395631708,0.7461843802493542,-0.4222101024784647,-0.4294152964284148,,-0.9193878173828124,-0.119232177734375,0.3648834228515625
584,35.886,-0.9052123026522361,0.734975546659993,0.3727967112999684,-0.6063248477163184,-0.469390769449111,,-0.435821533203125,0.032806396484375,-0.1625823974609375
585,35.936,-0.2353900516050948,0.6827819861366234,0.054081672135083414,-0.6957335829713773,-0.4761432254332198,,0.240753173828125,0.0511322021484375,-0.5577239990234375
586,35.986,0.2735716620730718,0.4355952087999847,0.60314113812618,-0.7858228576500803,-0.4346955498409907,,0.7082672119140625,-0.121368408203125,-0.10455322265625
587,36.035,0.9947115092915094,0.21661159654166123,0.9226438611097114,-0.8845493495642032,-0.3295072407084906,,1.32421875,-0.223785400390625,0.087493896484375
588,36.085,0.5169801868737712,-1.1970748921782208,0.8290955748251124,-0.9369813158574548,-0.1936521373449788,,0.71063232421875,-1.5398406982421875,-0.09014892578125
589,36.171,-0.10029177282287008,-1.6488976728761173,0.14104018347887082,-0.9264704311917132,-0.1858630618853701,,0.0855712890625,-2.018707275390625,-0.769287109375
590,36.221,-0.07024664468424358,0.10253334939794712,-0.0196311950157195,0.1880459307184365,-0.5582684952701811,,0.4880218505859375,-0.7123260498046875,0.136383056640625
591,36.271,-0.01701065055972073,0.6499314769603078,0.3619909186259802,0.2914446259047314,-0.6284150695050332,,0.6114044189453125,-0.09417724609375,0.5886993408203125
592,36.321,0.006520054615380078,0.7886790980847055,0.3297103752377457,0.3135693124981872,-0.6610214492908699,,0.66754150390625,0.0761566162109375,0.56500244140625
593,36.371,-0.17904497425694255,0.5119298639839804,-0.21674694195336963,0.2319125367976889,-0.6405928258194425,,0.4615478515625,-0.235015869140625,-0.038665771484375
594,36.42,-0.14600184941767402,-0.03716548861289137,-0.7725389353838681,0.1464433104422698,-0.586675677542674,,0.440673828125,-0.8382568359375,-0.6539459228515625
595,36.47,0.13810435463046478,-0.4284755989909287,-0.8953433543529012,0.1476535852910537,-0.5465880281820352,,0.6846923828125,-1.2566986083984375,-0.771697998046875
596,36.52,0.18067392348187428,-0.3163497455687656,-0.45991684312340464,0.158561649284144,-0.5248619651900007,,0.705535888671875,-1.156768798828125,-0.324951171875
597,36.57,-0.015079567454619691,0.016966861428245328,0.00016338826701238398,-0.0096293997809494,-0.6642952656968072,,0.6492156982421875,-0.73046875,-0.0070343017578125
598,36.62,-0.16024429760292502,0.26033767004746244,-0.0708552777329782,0.2626140340440545,-0.510647129634175,,0.35040283203125,-0.56927490234375,0.154937744140625
599,36.67,-0.212502351880812,0.3560768411380265,0.0038269233639827357,-0.0107468442787829,-0.5124443684823745,,0.2999420166015625,-0.502593994140625,-0.005401611328125
600,36.719,0.021577555316060287,0.1430905348930579,-0.010980463023383305,0.0765129209361147,0.1486832682066853,,-0.127105712890625,-0.8428955078125,0.0646820068359375
601,36.769,0.00833021971116571,-0.6839634125041446,-0.005229729758265689,0.0987911683069689,0.2260883984221032,,-0.2177581787109375,-1.6533050537109375,0.09100341796875
602,36.849,-0.3366446787294701,-1.0436080175433062,0.025044580839424707,0.1811826413833939,0.1951546376767799,,-0.53179931640625,-2.008148193359375,0.2027435302734375
603,36.899,-0.2747993336908937,-0.24182690501958226,0.3478318937893955,0.2995405444650848,0.1184501780278563,,-0.39324951171875,-1.1891937255859375,0.645263671875
604,36.949,0.03353040609998151,0.11204539386023116,-0.06770934170712317,0.5172009730134225,0.248114756685919,,-0.2145843505859375,-0.7170562744140625,0.433319091796875
605,36.999,0.0005970128133369001,0.48895349412296807,-0.23493358769677986,0.4330844847420387,0.0011005528523994,,-0.0005035400390625,-0.4123992919921875,0.198150634765625
606,37.048,-0.1864148530814307,0.2798421389604545,-0.312070931376088,0.7445049225929642,-0.4063550386283057,,0.219940185546875,-0.330169677734375,0.368194580078125
607,37.098,-0.17963715807934388,0.24862633464645023,-0.2990445808729345,0.7689510661345867,-0.4193374754621564,,0.2397003173828125,-0.331756591796875,0.3990325927734375
608,37.148,0.08771705440774757,0.23391930540029182,-0.22709678508623987,0.7549183341996322,-0.4019374866078774,,0.489654541015625,-0.3665924072265625,0.4641571044921875
609,37.198,0.5368801174740245,0.021240469184180988,-0.14577508751911994,0.7013350412601413,-0.336548227252538,,0.8734283447265625,-0.6500091552734375,0.5146484375
610,37.248,0.3160074103155942,-0.4388284042651758,-0.5839851738347421,0.647115213733246,-0.2411214959344058,,0.55712890625,-1.1787261962890625,0.044036865234375
611,37.298,0.35422441130247917,-0.505708597913498,-0.6399584224770754,0.6309111255426514,-0.1886070095959583,,0.5428314208984375,-1.26763916015625,-0.0203704833984375
612,37.347,0.3387390580458083,-0.34547282929680523,-0.5749579710902157,0.612343182368525,-0.1675170454698167,,0.506256103515625,-1.1248931884765625,0.0287322998046875
613,37.397,-0.031064450044728242,0.04765331097665171,-0.003718288390602273,0.0777914610711547,-0.5449346893025407,,0.5138702392578125,-0.7882843017578125,0.0615081787109375
614,37.447,-0.1536620888622986,0.18075702568685292,-0.022335660571193128,0.1226346164361624,-0.6448425087841736,,0.491180419921875,-0.577789306640625,0.0713958740234375
615,37.497,-0.18434721481274718,0.23487684848469714,-0.027954371131151512,0.1181830487765397,-0.6147213603205597,,0.4303741455078125,-0.54833984375,0.0652618408203125
616,37.547,-0.06025303449660929,0.12372607728944707,-0.02781867848490882,0.2193644167340636,-0.4291495188716093,,0.368896484375,-0.75750732421875,0.170318603515625
617,37.597,-0.0030902196187085063,0.012593021802288162,0.0009422406226018282,-0.0746138727891328,-0.237694101454646,,0.2346038818359375,-0.9560394287109376,-0.071533203125
618,37.646,-0.3012208262273576,-0.24858076562358966,0.028207295380519026,-0.0916330627574832,-0.1663483897039201,,-0.1348724365234375,-1.230499267578125,-0.0621490478515625
619,37.696,-0.2912781558685742,-0.25598911037332095,0.2089142721538955,-0.1084131233317893,-0.1092865787201367,,-0.1819915771484375,-1.244140625,0.1011505126953125
620,37.746,-0.4788458565193179,-0.35010484643183803,0.1592071475080629,-0.1031463241092756,-0.0708716133552554,,-0.4079742431640625,-1.3422698974609375,0.0563201904296875
621,37.796,-0.43847454202188463,-0.361097922458428,0.14348345722688266,-0.080636962564835,-0.0559977353812596,,-0.382476806640625,-1.3562774658203125,0.0629730224609375
622,37.846,-0.43995788796844437,-0.3059573484187963,0.06842287067089396,-0.012446694281791,-0.0615246604293819,,-0.3784332275390625,-1.303985595703125,0.055999755859375
623,37.896,-0.3942563566611913,-0.0816349568423207,0.1535593179952512,0.0513651570829502,-0.0805203947471288,,-0.3137359619140625,-1.0770721435546875,0.2047576904296875
624,37.946,0.033697648745850406,0.15199790498128274,-0.031016924915859223,0.1999411019613858,0.2122712571442879,,-0.1785736083984375,-0.80548095703125,0.16436767578125
625,37.995,0.0143893503835048,0.40494965167083685,-0.0964445937135135,0.2316842040225671,0.0345462107350673,,-0.0201568603515625,-0.5672607421875,0.135101318359375
626,38.045,-0.15346405463032342,0.39819924503926796,-0.26875227614623487,0.5594267871617631,-0.3042971845131359,,0.1508331298828125,-0.3913726806640625,0.2641448974609375
627,38.095,-0.0089876702261791,0.3448306323107553,-0.09519957980350219,0.2661209331270807,-0.0251162102652416,,0.0161285400390625,-0.618804931640625,0.17083740234375
628,38.145,-0.005609101887011608,-0.03749007965138895,0.008154499565022955,0.2125411976139072,0.1446594528004884,,-0.1502685546875,-1.004364013671875,0.2184600830078125
629,38.195,0.0030756279676530107,-0.48606723652804285,-0.1468721784335465,0.1680987196605897,0.171959905311403,,-0.16888427734375,-1.4571533203125,0.0187225341796875
630,38.245,-0.026992580968350804,-0.2218146520872195,-0.20824966415998936,0.1114459527450642,0.2080843233285242,,-0.235076904296875,-1.1938323974609375,-0.0992431640625
631,38.294,-0.1164559834380488,0.5559413901353755,0.09162664984864749,-0.1626196460654501,-0.2024087422271113,,0.0859527587890625,-0.4103240966796875,-0.067626953125
632,38.344,0.09978535885551601,1.0394578208238503,0.11611503479573143,-0.3155667491919622,-0.149451701691359,,0.249237060546875,0.1012115478515625,-0.1959075927734375
633,38.394,0.008518123758997909,0.798286960813993,0.8250524498449856,-0.4821018367159884,-0.0676537512410021,,0.076171875,-0.0758209228515625,0.34405517578125
634,38.444,-0.25867141169594543,-0.8563384110386354,-0.23365721060144384,-0.6515308318343611,0.0391191156478046,,-0.29779052734375,-1.6143798828125,-0.8846893310546875
635,38.892,-1.8898168768595724,0.05547335227309169,0.22809046620934714,-0.6521174627729743,0.0464013848591775,Hook,-1.93621826171875,-0.7018280029296875,-0.4233245849609375
636,38.942,-1.3757862463372117,0.12930574740137424,-0.8926141824446114,-0.6242491991838507,0.0027843103034133,,-1.378570556640625,-0.65191650390625,-1.5168609619140625
637,38.992,-1.7584763612856926,-0.3118790301679736,-0.8751614679749429,-0.4477763665878889,-0.0413132753481927,,-1.7171630859375,-1.20526123046875,-1.3225555419921875
638,39.042,-1.4235669277520244,0.26127237356544475,0.47464107201857975,-0.2598056445283215,-0.1702405117363994,,-1.253326416015625,-0.6902923583984375,0.2186279296875
639,39.092,-0.9207433842410291,0.5667558868964044,0.405603938626378,-0.3229708096281018,-0.3263067387332166,,-0.5944366455078125,-0.327850341796875,0.100311279296875
640,39.142,-0.1416916174188767,0.9953461008058273,-0.6644569814152013,-0.4179780352568538,-0.4732345861688767,,0.33154296875,0.1950531005859375,-1.0326690673828125
641,39.192,0.21800758523559383,0.689760552597488,-0.10987863861024938,-0.4043602016364152,-0.5022682936706562,,0.72027587890625,-0.101104736328125,-0.45953369140625
642,39.241,-0.0035518313674532953,0.0026814630937619377,0.001045983643567977,-0.3634095201745859,-0.7769282962112033,,0.77337646484375,-0.5838623046875,-0.227752685546875
643,39.291,0.23944059994762312,-0.420698150775345,0.2434419286788731,-0.3530553124192517,-0.7155917486851893,,0.9550323486328124,-1.0742340087890625,-0.003173828125
644,39.341,0.06181664508573237,-1.0007777182434192,0.03982120372787448,-0.271632367381059,-0.6432004447580176,,0.70501708984375,-1.7376861572265625,-0.1681671142578125
645,39.391,-0.08726461073263536,-1.0359909370210554,0.6207642716344671,-0.221970361860788,-0.5824886097560729,,0.4952239990234375,-1.82855224609375,0.440338134765625
646,39.441,-0.318633759553669,-0.6277985764903367,0.2763068748240861,-0.2223106101086667,-0.5741116648271065,,0.2554779052734375,-1.42608642578125,0.0942840576171875
647,39.491,-0.0995422924593179,-0.26957367801552845,0.539223197997231,-0.2297421056583085,-0.5731903637483804,,0.4736480712890625,-1.06707763671875,0.3509674072265625
648,39.54,-0.045902727256071696,0.08969111642462513,-0.051298471372701104,0.4964774649355912,-0.4059948903420092,,0.3600921630859375,-0.7035980224609375,0.4024200439453125
649,39.59,-0.19968125942438852,0.18472033289164413,-0.16606200180548358,0.6685502532536873,-0.626545883447826,,0.4268646240234375,-0.3948822021484375,0.3549957275390625
650,39.64,0.03948098520760579,0.2583246252015158,-0.4166334647124316,0.6194674715821794,-0.6348354210423942,,0.67431640625,-0.3482208251953125,0.0619964599609375
651,39.69,-0.028563112288106485,0.031456525527930435,0.0035138186620781026,-0.1110135124094958,-0.6699510517412315,,0.641387939453125,-0.70635986328125,-0.0789031982421875
652,39.74,-0.17552623370433662,-0.311126741760008,-0.3068799985543006,-0.2318072763277637,-0.6822248421027741,,0.5066986083984375,-1.0223541259765625,-0.4763641357421875
653,39.79,-0.030136056647775078,-0.601794662411675,-0.1687639258313214,-0.2857688827472698,-0.7234801728587126,,0.6933441162109375,-1.2633514404296875,-0.3660430908203125
654,39.839,0.09849210245413698,-0.9736320210982736,-0.4143753776226286,-0.3340866374207881,-0.7749667598505505,,0.8734588623046875,-1.5693206787109375,-0.625518798828125
655,39.889,-0.18666674410038175,-0.6804711176591293,-0.6867680615578408,-0.3203200495987156,-0.8221647909753818,,0.635498046875,-1.2197265625,-0.869110107421875
656,39.939,-0.10332361836390891,0.18707086802075545,0.06400000396241262,-0.3236970762689183,-0.4631563820357839,,0.359832763671875,-0.6514892578125,-0.2228851318359375
657,39.989,-0.133507358499754,0.4257962970415319,-0.4576391130594928,0.732118527303807,-0.2088705176794415,,0.0753631591796875,-0.2403564453125,0.258331298828125
658,40.039,-0.260219963874853,0.4275546675865469,-0.3761991141114557,0.7904643963601902,-0.209652336921728,,-0.050567626953125,-0.1713409423828125,0.396697998046875
659,40.089,-0.050229204970300104,0.2925937791597516,-0.44102974005474216,0.8332917759138218,-0.0944796932515501,,0.04425048828125,-0.2577667236328125,0.3885345458984375
660,40.139,-0.0709127166753225,0.3412935710714565,-0.10242464222149072,0.2874420416921471,-0.1951802948003225,,0.124267578125,-0.59808349609375,0.1794891357421875
661,40.188,0.2398561747809645,-0.3294639950121411,0.35306752514193207,0.2254849101082074,-0.159847804711223,,0.3997039794921875,-1.2911834716796875,0.575653076171875
662,40.288,-0.7226689157547831,-1.0557967914594486,0.16297766563979907,0.1960986685697822,-0.2073948679032206,,-0.5152740478515625,-2.0150604248046875,0.3548126220703125
663,40.338,-0.23894291613536878,0.1285598491060661,0.7594570037596075,0.2468584959923323,-0.3042352745338063,,0.0652923583984375,-0.7945556640625,0.9946136474609376
664,40.388,-0.010233767636177199,0.09482193733006683,-0.12742961524279806,0.8022615768549332,-0.0642956572846147,,0.0540618896484375,-0.50091552734375,0.6731719970703125
665,40.438,-0.06602107311655148,0.16284216674240015,-0.16831816210457606,0.7187010942670674,-0.271328079952489,,0.2053070068359375,-0.5063934326171875,0.5234222412109375
666,40.487,-0.020570876687580897,0.20046512308786024,-0.10063182376128726,0.448637022093623,-0.0913258815703934,,0.0707550048828125,-0.68951416015625,0.34613037109375
667,40.537,-0.05121148059750469,0.10307555911756394,-0.09566333579966002,0.680261360269736,-0.3421813292303172,,0.2909698486328125,-0.5856475830078125,0.5435333251953125
668,40.587,0.2695880542622989,0.24060626257531548,-0.206279440133186,0.6926798312970603,-0.3786815990580136,,0.6482696533203125,-0.4269256591796875,0.434814453125
669,40.637,0.3496746504028872,0.19489328517825721,0.06995252537994501,0.7033641952540144,-0.3781085527221128,,0.727783203125,-0.463165283203125,0.721099853515625
670,40.687,0.023594634249597957,-0.027598539562275204,0.018590799185942808,0.5586836461165644,-0.5784103706332145,,0.6020050048828125,-0.70416259765625,0.474334716796875
671,40.737,0.027909345836098276,-0.03792550421550955,0.01511052177626232,0.370130117835988,-0.5643605516248392,,0.5922698974609375,-0.8048248291015625,0.3206634521484375
672,40.786,-0.0701279949491026,0.08995499269894025,-0.045400301471114624,0.4505672898007041,-0.5712418865506651,,0.5011138916015625,-0.642791748046875,0.3244171142578125
673,40.836,-0.14695274572527017,0.13196916067435482,-0.04765877260157411,0.3396649062993941,-0.7232619498268327,,0.5763092041015625,-0.517547607421875,0.1869049072265625
674,40.886,-0.08669919270861526,0.09535387646157212,-0.01457379615677909,0.151084588524094,-0.6684710432945528,,0.5817718505859375,-0.6398468017578125,0.0977935791015625
675,40.936,-0.3778905349742069,-0.364998385956143,0.11444441469744757,0.1616350088749803,-0.6315831619273319,,0.253692626953125,-1.1301116943359375,0.2397613525390625
676,40.986,-0.2853651106983158,-0.4376351792799298,0.2959405458954457,0.1747969391057547,-0.6092176497608158,,0.3238525390625,-1.2184295654296875,0.4345550537109375
677,41.036,-0.3426500639218575,-0.2303404121412339,0.3291470804089281,0.1541219322283211,-0.5867601713437325,,0.244110107421875,-1.030426025390625,0.453948974609375
678,41.085,-0.15966968640005902,0.2819887502074607,-0.1483968966854421,0.4657016201620895,-0.4479845057359965,,0.2883148193359375,-0.509185791015625,0.2679595947265625
679,41.135,-0.10003551334814459,0.6806053603707212,-0.1897173461754409,0.4400105853148774,-0.3899830231137696,,0.289947509765625,-0.1462860107421875,0.2154541015625
680,41.185,-0.39319001023167044,0.4625336741196989,-0.4786480188013248,0.7191080438217853,-0.5086074907004204,,0.11541748046875,-0.135772705078125,0.1405029296875
681,41.235,-0.016174711692191,0.2823400278850603,-0.30511289145706355,0.7339667975263717,-0.038879789817191,,0.022705078125,-0.396331787109375,0.4282989501953125
682,41.285,-0.5619355455239698,-0.972765401983273,-0.598786372147382,0.7062155251325573,0.1281279310385301,,-0.6900634765625,-1.6749267578125,0.1016082763671875
683,41.656,-2.8127965558227093,5.38753326122597,-1.2528360310833886,0.8008933568943521,-0.5100774396117717,,-2.3027191162109375,4.8724822998046875,-0.56396484375
684,41.713,-2.5857499611726835,1.5937118310200638,0.16512541353912846,0.8794446634265971,-0.6509660256258087,,-1.934783935546875,1.2323760986328125,0.8327178955078125
685,41.793,-2.6332670437831265,-0.15958707953203033,0.3980681224896083,0.8779415556793407,-0.6348234402675017,Hook,-1.998443603515625,-0.529510498046875,1.076416015625
686,41.843,-2.4743807782679155,-0.04070022328544576,0.5716564725433887,0.8348141676936441,-0.6204379071741656,,-1.85394287109375,-0.4724578857421875,1.2263641357421875
687,41.893,-2.1176949848181295,-0.12418270449666313,0.29087700918629955,0.7931312557342597,-0.6033669818884418,,-1.5143280029296875,-0.6098785400390625,0.923370361328125
688,41.943,-1.9531352027639493,-0.13676930441796975,0.2787557563052212,0.7633091612458315,-0.5660807594045741,,-1.387054443359375,-0.6693267822265625,0.907989501953125
689,41.993,-1.6170650398960107,-0.12643971836357482,-0.5494895500322894,0.6603116299373928,-0.5419765389194482,,-1.0750885009765625,-0.757568359375,0.00543212890625
690,42.042,-0.6120080208975194,0.15789629435349595,-1.5268974031744462,0.575041123545849,-0.5617913460928319,,-0.0502166748046875,-0.5189208984375,-1.051177978515625
691,42.092,0.23930256955455687,0.42051598782573296,-1.1053545603143535,0.5952655286432895,-0.5454722107188806,,0.7847747802734375,-0.2529449462890625,-0.6064453125
692,42.142,0.4591216195721171,0.7407646700447881,-0.35990608382736733,0.6212721918040636,-0.4788666616778829,,0.93798828125,0.0528564453125,0.1855010986328125
693,42.192,0.3306311938936815,0.31677961467560645,-0.17046879182882457,0.6191431247216598,-0.3355370189969435,,0.666168212890625,-0.4229736328125,0.41278076171875
694,42.242,-0.029499125404438886,-0.7842000022547928,-0.43926158320840025,0.5958374334247585,-0.1582985638810014,,0.1287994384765625,-1.577178955078125,0.1490631103515625
695,42.312,0.057323498386558897,-1.3105932731600873,-0.651645505903745,0.6141186209583578,-0.0304297975118786,,0.0877532958984375,-2.0994415283203125,-0.037811279296875
696,42.361,0.001669305619354744,-0.00252244121425349,-0.0012222454989615494,-0.4360550277740305,-0.5116821348103328,,0.5133514404296875,-0.7757110595703125,-0.3758697509765625
697,42.411,0.4394102339884507,0.9593958579608929,1.3386920182120652,-0.3881497613289959,-0.5546998734334243,,0.994110107421875,0.1925811767578125,1.0157318115234375
698,42.461,0.2283392382146422,0.8505478795566739,1.272378858172729,-0.3071965229659632,-0.5526513623712953,,0.7809906005859375,0.05743408203125,1.016357421875
699,42.511,-0.3898816178944688,-0.43932479593941876,0.39715338311192866,-0.3357799924563506,-0.4660382341054063,,0.0761566162109375,-1.2727203369140625,0.100067138671875
700,42.561,-0.541378290156584,-0.991144275276758,-0.3115456073701855,-0.3189733144259358,-0.3447687930862715,,-0.1966094970703125,-1.88079833984375,-0.6109619140625
701,42.611,-0.07293235131505338,0.10801811154560792,0.04145114345160089,-0.3582690772528077,-0.5332594997525534,,0.4603271484375,-0.6817779541015625,-0.261627197265625
702,42.66,0.3840755073637241,1.4124255563978299,-0.45240527959517324,-0.4381480435667523,-0.5042759330659634,,0.8883514404296875,0.6361846923828125,-0.8307647705078125
703,42.71,0.030903590386854585,1.210057362933913,0.19192768546155126,-0.51438128164211,-0.4284164779725204,,0.459320068359375,0.4351806640625,-0.272857666015625
704,42.76,0.37044951212190524,0.5679605507274162,0.14354100083614607,-0.2450264435106668,0.5344662357547177,,-0.1640167236328125,-0.25146484375,-0.0635528564453125
705,42.81,-0.17195709144360394,-0.692510763548237,0.5668788995273306,-0.4738152667898242,0.6188754280876461,,-0.79083251953125,-1.3842315673828125,0.1947021484375
706,43.278,-1.437542575424602,-0.04181510259157617,0.2296213984967434,-0.4804650294575452,0.5791505398097729,,-2.016693115234375,-0.75677490234375,-0.1620635986328125
707,43.328,-0.7523421660857585,-0.20713195813874696,-1.2847996739865342,-0.4996303117124482,0.506584225515804,Hook,-1.2589263916015625,-0.9539947509765624,-1.715576171875
708,43.378,-0.5847378652693043,-0.560919808471544,-1.319664845156371,-0.4341366129304168,0.4670046884416332,,-1.0517425537109375,-1.3574981689453125,-1.70355224609375
709,43.428,-0.4717761435489956,-0.3840523206058417,-1.075650704379018,-0.1965298854129724,0.3868206582088169,,-0.8585968017578125,-1.2882232666015625,-1.2568817138671875
710,43.478,-0.386325275723305,0.08592856083241729,0.2610943814910372,-0.0382603990811152,0.251125896151695,,-0.637451171875,-0.881317138671875,0.22406005859375
711,43.528,0.2618734691714492,1.1232562411078715,-0.06483053008919858,-0.0921242414490896,0.0775625560855117,,0.1843109130859375,0.1305084228515625,-0.15667724609375
712,43.578,0.6271558812498138,1.2550359265775621,0.27574957550474705,-0.0676724347781167,0.0143476537107513,,0.6128082275390625,0.2574310302734375,0.2080841064453125
713,43.627,0.7842015151111449,1.1574865152116036,0.35219041867934864,-0.1000137385543196,0.0267704848377074,,0.7574310302734375,0.1628570556640625,0.2522125244140625
714,43.677,-0.07427621093796499,0.04791845301328246,0.02317506172441508,-0.435389107595742,-0.81283211914109,,0.738555908203125,-0.476470947265625,-0.230438232421875
715,43.727,-0.30964554994176596,-0.9149620866894863,-0.9223801586942899,-0.5332955923163603,-0.7756337091214535,,0.4659881591796875,-1.4488983154296875,-1.2589874267578125
716,43.777,-0.22598565474532228,-0.8727853824739733,-1.2907553124065045,-0.5322013341668532,-0.7764159525968848,,0.5504302978515625,-1.406341552734375,-1.62615966796875
