Index,Time,Acceleration X,Acceleration Y,Acceleration Z,Orientation X,Orientation Z,Punch Type,Raw Acceleration X,Raw Acceleration Y,Raw Acceleration Z
0,0.0,-0.3300096476025584,-0.028002429773390514,-0.018981706288663802,-0.5610977125319788,-0.1622240030713084,,-0.16778564453125,-0.84478759765625,-0.5726470947265625
1,0.05,0.0015693632431189042,0.010398683887938853,0.0058926061551159425,-0.4930137511050143,0.1301856962509314,,-0.1286163330078125,-0.8522186279296875,-0.4829254150390625
2,0.099,-0.004940271175211813,-0.02809911169476531,-0.017063401096774067,-0.5190498363371455,0.1486089231607257,,-0.1535491943359375,-0.87335205078125,-0.5303497314453125
3,0.149,0.0006758955678599077,0.004242474699615251,0.0015074878844958395,-0.3348228211650951,0.1484572676381724,,-0.1477813720703125,-0.9275970458984376,-0.3296051025390625
4,0.199,-0.015694778366513507,-0.08087075814101963,-0.0411378423042274,-0.4533965749596433,0.170447189406924,,-0.1861419677734375,-0.959136962890625,-0.4878997802734375
5,0.249,0.0008741999555481883,0.004225404479755057,0.001454208069767815,-0.3254250324114494,0.1919905329633607,,-0.1911163330078125,-0.9237518310546876,-0.3179168701171875
6,0.299,-0.008221482856050788,-0.04150711808502827,-0.009243863111052408,-0.2173799489452037,0.1898223403861367,,-0.1980438232421875,-0.999847412109375,-0.2226715087890625
7,0.349,-0.005107582298052582,-0.03335519334044745,-0.01991140159220528,-0.5125691770985256,0.1303599469988224,,-0.135467529296875,-0.884674072265625,-0.528106689453125
8,0.398,-0.005294228023732306,-0.0470930699707659,-0.028023816407769297,-0.5113791240588754,0.0961614604528302,,-0.1014556884765625,-0.9024658203125,-0.5370330810546875
9,0.448,-0.0006694070278930007,-0.041698872290331646,-0.034752595842442724,-0.6402228385431945,0.012331081253357,,-0.01300048828125,-0.8098297119140625,-0.6749267578125
10,0.498,0.003852051060261298,-0.06954942748816673,-0.06702488145460872,-0.6939175268043296,-0.0398491208147387,,0.043701171875,-0.789031982421875,-0.7603912353515625
11,0.548,-0.001099196757931603,0.015656550148943738,0.011333565037111026,-0.5863761875320844,-0.0567785180469941,,0.0556793212890625,-0.7930755615234375,-0.5740966796875
12,0.598,-0.006098683112912007,0.09427758329133873,0.020020122098925314,-0.2077211177011781,-0.0631512954175995,,0.0570526123046875,-0.8819580078125,-0.187286376953125
13,0.648,-0.003662749370520496,0.05107835527560722,0.017671389232146062,-0.3269522794750624,-0.067612334331458,,0.0639495849609375,-0.8917999267578125,-0.30853271484375
14,0.697,-0.004115977307949603,0.04187075591469969,0.021561936313186314,-0.4578249118681582,-0.0870627546516996,,0.08294677734375,-0.8437957763671875,-0.4345245361328125
15,0.747,0.0024934359116092902,-0.021525647300173034,-0.016710694530028825,-0.6132206809342194,-0.0911192349868282,,0.0936126708984375,-0.8081512451171875,-0.62738037109375
16,0.797,-0.003624918767806601,0.027289219517606766,0.01775920781553164,-0.5454463287043412,-0.1106500652521816,,0.107025146484375,-0.8057098388671875,-0.5243377685546875
17,0.847,-0.0070086808441846005,0.05665805458194939,0.02458904146676194,-0.3981146972095798,-0.1127520890473096,,0.105743408203125,-0.854827880859375,-0.3709869384765625
18,0.897,-0.0005361044539724941,0.007247388806227106,0.00359606593951306,-0.4444795711282605,-0.0661183798445975,,0.065582275390625,-0.8865814208984375,-0.439910888671875
19,0.947,-0.004898772574669308,0.02212931074593949,0.011804353224977027,-0.4706519982417115,-0.1916968682777943,,0.186798095703125,-0.8438262939453125,-0.4501190185546875
20,0.997,-0.0016295970736771026,0.010316938635037798,0.00478804991303744,-0.4209697300772199,-0.1418273509799271,,0.14019775390625,-0.8875885009765625,-0.41192626953125
21,1.046,-0.000923651253203997,0.013727849285111171,0.007713967469173855,-0.4898777813412816,-0.0585560975422665,,0.0576324462890625,-0.8565673828125,-0.4813232421875
22,1.096,-0.010319289062612702,0.050617682565955446,0.030289159372534735,-0.513480106276968,-0.1723218525391752,,0.1620025634765625,-0.794647216796875,-0.4755096435546875
23,1.146,-0.029549847408365693,0.09535994734038455,0.04169706902671405,-0.4006340826854953,-0.2731258972130532,,0.2435760498046875,-0.786041259765625,-0.3437042236328125
24,1.196,-0.008806130091590397,0.03404120241623487,0.016502938144473955,-0.436233113939667,-0.2267168966931529,,0.2179107666015625,-0.8423614501953125,-0.4083709716796875
25,1.246,-0.007120975466107904,0.022220461218432463,0.00960510097677747,-0.3967807411326529,-0.2822064246848579,,0.27508544921875,-0.8583831787109375,-0.3710479736328125
26,1.296,0.004634599733743305,-0.009462044223827903,-0.004169413047568404,-0.4032339137252289,-0.4090159129615692,,0.4136505126953125,-0.844512939453125,-0.37213134765625
27,1.345,-0.01337671262998702,-0.10237959153522946,-0.06206669932802139,-0.3652524808578814,-0.384562015364362,,0.371185302734375,-0.961700439453125,-0.39923095703125
28,1.395,0.05366654655525421,-0.16943049434476976,-0.09606472518529141,-0.3441472733813662,-0.3628068421166208,,0.416473388671875,-1.04437255859375,-0.4167633056640625
29,1.445,0.0669844925479951,-0.3072336890032671,-0.3857088802088884,-0.2806901347143789,-0.3453995406551299,,0.412384033203125,-1.2079620361328125,-0.6491241455078125
30,1.495,0.2256235705601803,-0.31767861862117985,-0.4829921393834974,-0.1421605611015286,-0.3206715954554447,,0.546295166015625,-1.2552490234375,-0.617645263671875
31,1.545,0.327813493143819,-0.44132574979864014,-0.36231496130120944,0.0650209409364835,-0.303900374043681,,0.6317138671875,-1.3920135498046875,-0.3003692626953125
32,1.595,1.0270738447111027,-0.2599294823223083,-0.3314751760938209,0.3851386586787395,-0.2359876787263972,,1.2630615234375,-1.1567230224609375,0.04278564453125
33,1.849,1.0723580599268325,3.6368025740937098,-0.9211093123772064,-0.0183844885940974,-0.286940646127855,Straight,1.3592987060546875,2.67901611328125,-0.938720703125
34,1.899,-0.1341541264757093,1.2482307390422547,0.33144048727302744,0.1828943319591987,-0.2239521001085218,,0.0897979736328125,0.290069580078125,0.5096893310546875
35,1.948,-1.1455100251637755,0.842229067024468,1.2723658370716282,0.16243518415361,-0.1972373200856506,,-0.948272705078125,-0.1251068115234375,1.431610107421875
36,1.998,-0.6300113506279406,0.9173697110448693,0.6756393257509639,0.1694858319000881,-0.2139194316826281,,-0.4160919189453125,-0.04534912109375,0.8412017822265625
37,2.048,-0.9002298441494709,0.7527203118131697,0.8273978904965835,0.1348589547922835,-0.250358017977596,,-0.649871826171875,-0.2065887451171875,0.9579620361328124
38,2.098,-0.9224439295677497,0.7250286607767757,0.7249707685447169,0.0715415948096565,-0.3134198817161872,,-0.6090240478515625,-0.2221527099609375,0.79290771484375
39,2.148,-1.3836336063135488,0.5962289884446446,0.6950781584119309,0.0010284495760621,-0.4138460086572988,,-0.96978759765625,-0.314117431640625,0.696014404296875
40,2.198,-1.7182191318114042,0.45443602908556,0.8997490582761132,-0.212616461851113,-0.5648835605223417,,-1.1533355712890625,-0.35186767578125,0.72430419921875
41,2.247,-1.866657364325617,0.34682043775450366,0.9577289430017769,-0.4378273910735212,-0.738147842841242,,-1.128509521484375,-0.2597198486328125,0.662353515625
42,2.297,-1.1887080036124225,0.13697387850367004,0.956651157269909,-0.6495997568641627,-0.8661066852530476,,-0.322601318359375,-0.2430572509765625,0.6319427490234375
43,2.347,-0.0157060381928585,0.1698036309930232,-0.04293765167649655,0.2451503100437067,-0.0893144366303585,,0.0736083984375,-0.795806884765625,0.20123291015625
44,2.397,0.2111756206692191,-0.23439979310769798,0.35345571725508096,0.2440559858072421,-0.1838133930026559,,0.394989013671875,-1.1876373291015625,0.593353271484375
45,2.447,0.05478321014581691,-0.21693480945450538,0.2784009463924051,0.267774592436432,-0.2443958670026206,,0.2991790771484375,-1.1511993408203125,0.538055419921875
46,2.497,0.040780370901854324,-0.0686892598787685,0.05084314553226288,0.594941999721162,-0.4306704347622082,,0.4714508056640625,-0.794097900390625,0.5877838134765625
47,2.547,-0.012585708901604709,0.015640959266705057,-0.012178806937524267,0.6143685077952604,-0.5359926913234797,,0.523406982421875,-0.6504669189453125,0.5064849853515625
48,2.596,-0.02050531209735551,0.03574069516302103,-0.015270450466727592,0.3928976361131271,-0.466626527917668,,0.4461212158203125,-0.777587890625,0.3322296142578125
49,2.646,-0.026125799335640187,0.05395584513744145,-0.012854602877511584,0.2317565605623723,-0.4261196958200152,,0.399993896484375,-0.826080322265625,0.196807861328125
50,2.696,-0.0054262251485532875,0.01310347850990834,-0.0002931255037153177,0.0223644575130182,-0.3825166792501158,,0.3770904541015625,-0.910614013671875,0.0203704833984375
51,2.746,0.003000748526582775,-0.0064540165805933025,0.0003248166168965602,0.0502642083850169,-0.4211630698327922,,0.424163818359375,-0.91229248046875,0.0459136962890625
52,2.796,0.029375083843469207,-0.045372950523335454,0.016292220903690757,0.3379473493671461,-0.5203380509221558,,0.549713134765625,-0.849090576171875,0.3048858642578125
53,2.846,0.028453515270989382,-0.04525300755160888,0.002248818054262261,0.0496330862844864,-0.5318187015258856,,0.560272216796875,-0.8910675048828125,0.044281005859375
54,2.895,0.1686747822725212,-0.08317981111289607,0.1547750915783671,0.0724636768069301,-0.5153919901884163,,0.6840667724609375,-0.9378814697265624,0.2168731689453125
55,2.945,0.258301115999379,-0.14580983120878155,0.10090004361862112,0.1022543483793489,-0.500030182828746,,0.758331298828125,-1.0072784423828125,0.189453125
56,2.995,0.20331709945190385,-0.14574206344510143,0.016315675772563654,0.1446403112808152,-0.4832673732043461,,0.68658447265625,-1.0120086669921875,0.1429443359375
57,3.045,0.4947231003025448,-0.22274062154740182,-0.16843373738270462,0.2350220643435917,-0.4418308547755802,,0.936553955078125,-1.0947113037109375,0.0424041748046875
58,3.095,1.2051350670216507,-0.37647525375135693,0.024607297681911056,0.4189461027736447,-0.3713877601267868,,1.5765228271484375,-1.21954345703125,0.4135894775390625
59,3.339,1.3666885118698047,3.3665397644365376,-0.5101897419035089,0.2306056952085438,-0.4387314100051952,,1.805419921875,2.4921417236328125,-0.3029632568359375
60,3.389,-1.3500453435618522,0.6813143924662862,0.44312557839094696,0.3763552622000098,-0.4012385808665398,Straight,-0.9488067626953124,-0.1673126220703125,0.7878570556640625
61,3.439,-0.9846734184239494,1.1459362011654222,0.3388388815668958,0.513293647219932,-0.3630608695958244,,-0.621612548828125,0.346282958984375,0.817108154296875
62,3.489,-1.1561103396420565,0.7951821228639872,0.30568358967280707,0.5889508747161588,-0.3748145632748689,,-0.7812957763671875,0.045928955078125,0.8516998291015625
63,3.538,-1.2483857590120895,0.7184040870372169,0.4596871063068534,0.6597619558592341,-0.3865083176058395,,-0.86187744140625,0.02532958984375,1.06817626953125
64,3.588,-1.8930122784563714,0.31001269135149656,0.07015461764903419,0.6440083725352013,-0.496573679823559,,-1.3964385986328125,-0.3540191650390625,0.629150390625
65,3.638,-1.7832943350592267,0.7217958765258946,0.34454607804073006,0.5703364496144734,-0.6219478995123519,,-1.161346435546875,0.078582763671875,0.7911529541015625
66,3.688,-1.7217768574260908,0.2468684171382164,0.40757666901117734,0.4476651347865529,-0.7684992695354657,,-0.953277587890625,-0.325286865234375,0.6940155029296875
67,3.738,-1.2068960761478424,0.17203978399120606,0.5132341824145304,0.302611576598817,-0.8759024238040924,,-0.33099365234375,-0.2878265380859375,0.65924072265625
68,3.788,-0.9782528735025292,-0.1255861009706148,0.839127709320293,0.1515242451733605,-0.9499935961587792,,-0.02825927734375,-0.4342498779296875,0.886444091796875
69,3.837,0.020849317449623483,-0.03429434581222812,0.04718220564875053,0.8088990367136044,-0.336587816339439,,0.3574371337890625,-0.5879364013671875,0.8088836669921875
70,3.887,0.1089348904190921,-0.06509956592133137,0.5886928755926498,0.6898180651456944,-0.4529089816512204,,0.5618438720703125,-0.7105712890625,1.203704833984375
71,3.937,-0.10224959875746542,0.087746985682843,-0.03555981430716193,0.3755845678620432,-0.7337498428980904,,0.631500244140625,-0.54193115234375,0.2196197509765625
72,3.987,-0.09318226654925965,0.12227754984212025,-0.06364536114005176,0.4617012263513486,-0.5600249179164472,,0.4668426513671875,-0.61260986328125,0.3188629150390625
73,4.037,-0.04912268711639578,0.12155882150622499,-0.017510089900669046,0.1425746604643252,-0.3713730533273333,,0.3222503662109375,-0.7974395751953125,0.1148681640625
74,4.087,-0.012692196909814601,0.03839037522166677,0.0003716545830017969,-0.0096804776266556,-0.3138854342145021,,0.3011932373046875,-0.9110260009765624,-0.008819580078125
75,4.136,0.01705806242666269,-0.04525834120157379,-0.010018945343435948,-0.2161396518330815,-0.3453534365967748,,0.3624114990234375,-0.9615478515625,-0.212860107421875
76,4.186,0.02504635861529131,-0.06790672806657005,-0.019867916642218153,-0.2808047165289671,-0.3337030310331462,,0.3587493896484375,-0.97265625,-0.284576416015625
77,4.236,0.03975107336673128,-0.08684010626460792,-0.01118898280205119,-0.1277894328322698,-0.4133891854223312,,0.4531402587890625,-0.98992919921875,-0.1275482177734375
78,4.286,0.1723310794335124,-0.05647845804970075,0.11448215820293159,-0.1398692035540077,-0.4188401852149251,,0.5911712646484375,-0.9556121826171876,-0.0125274658203125
79,4.336,0.1754035526445739,-0.033985724155008334,0.026694512345681876,-0.1515345798358419,-0.4249992793866761,,0.60040283203125,-0.9287261962890624,-0.1104736328125
80,4.386,0.0484098576898605,-0.06747341957969932,-0.012737817935201817,-0.185506073446325,-0.576208672583577,,0.6246185302734375,-0.8705902099609375,-0.1643524169921875
81,4.435,0.027919633347338157,-0.044949265244590975,-0.006712951085450863,-0.1477069281926393,-0.5234414506370368,,0.551361083984375,-0.887664794921875,-0.132568359375
82,4.485,0.3015818160278756,-0.1012153020062928,-0.00916499122814328,-0.0701403865165432,-0.4967885453002494,,0.798370361328125,-0.966949462890625,-0.070037841796875
83,4.535,0.3603679646569174,-0.22077732041353482,-0.04169900618558764,0.0292124646821957,-0.4739521037024576,,0.834320068359375,-1.1009521484375,-0.0159759521484375
84,4.585,0.4930833386266007,0.03982993603651919,-0.20771017985924758,0.2088375556647781,-0.4007154894983993,,0.893798828125,-0.856170654296875,-0.0163726806640625
85,4.635,0.6145887986103427,-0.07329131456453819,-0.055473480441071144,0.4489166711917363,-0.3429002150615323,,0.957489013671875,-0.912689208984375,0.3662261962890625
86,4.849,-3.639134291847666,-1.0035783347998017,0.8857480494868621,0.5122345722792178,-0.5095108787617284,,-3.1296234130859375,-1.742584228515625,1.326507568359375
87,4.899,0.9742091121465508,2.950109430148075,0.13001798126778225,0.3564930991324401,-0.5244633732050117,Straight,1.4986724853515625,2.1546173095703125,0.4335479736328125
88,4.949,-1.5381400416347584,0.033363712834516335,0.9420658792405003,0.460811635165632,-0.4448020289394458,,-1.0933380126953125,-0.761505126953125,1.3547821044921875
89,4.999,-1.5307097167247936,0.8722234306154304,0.5726184342144522,0.4548795104402076,-0.4719023436779187,,-1.058807373046875,0.087066650390625,0.973663330078125
90,5.049,-1.211074049237708,0.7855463983209419,0.32246018011912675,0.4210243343785347,-0.5140067884955204,,-0.6970672607421875,0.0074920654296875,0.6836090087890625
91,5.098,-1.5864994650691162,0.48520350332317363,0.48217589186926113,0.4207494418229836,-0.5868809347956786,,-0.9996185302734376,-0.2493133544921875,0.822845458984375
92,5.148,-1.7121421872567073,0.4476536631948148,0.48980474298436316,0.2678757679673674,-0.6922447263192073,,-1.0198974609375,-0.2476348876953125,0.6831207275390625
93,5.198,-1.4795897344027416,0.3388169262086933,0.39802650750385965,0.0862094879760024,-0.8102934697543042,,-0.6692962646484375,-0.245025634765625,0.44854736328125
94,5.248,0.19608442478235033,0.15576185742793214,-0.1671736567313673,0.7316376357281504,0.6512388437276628,,-0.4551544189453125,-0.3615570068359375,0.3880462646484375
95,5.298,0.04421510294496428,0.10101519221855093,-0.06455896805629491,0.5385165340768808,0.3460339506012143,,-0.30181884765625,-0.689544677734375,0.4406890869140625
96,5.348,0.03719694605892909,0.12601399381689105,-0.043264567750595895,0.3247257153643846,0.2689016579729916,,-0.2317047119140625,-0.7849578857421875,0.269500732421875
97,5.397,0.005510474791770692,0.03520130085674111,0.00037153702555493655,-0.0105540512297635,0.1546498790886457,,-0.149139404296875,-0.9527130126953124,-0.0100555419921875
98,5.447,-0.0002495202882055996,-0.03341621703389819,0.005586954268779809,0.1649039679816654,0.0073646154539819,,-0.0076141357421875,-1.0196990966796875,0.1704864501953125
99,5.497,-0.01563961472911951,0.04971590760017619,0.011733370997425802,-0.2296979814443424,-0.292754482893182,,0.2771148681640625,-0.8809051513671875,-0.2079010009765625
100,5.547,0.0004750854764793977,-0.1395105816717176,-0.08489275255467305,-0.3033696097884304,-0.3950479858125831,,0.3955230712890625,-1.0148773193359375,-0.36358642578125
101,5.597,0.04109076845821269,-0.05045106776185537,-0.025196671714015906,-0.4468041061623982,-0.5888988555652248,,0.6299896240234375,-0.77349853515625,-0.3863067626953125
102,5.647,-0.028629153211050862,-0.24931458693616948,0.26208620753722733,-0.4426357430989098,-0.6249884061407384,,0.5963592529296875,-0.949310302734375,-0.0834503173828125
103,5.696,0.22062195831082598,-0.2568720483407544,0.2640040128751485,-0.4357090412545863,-0.649830922548549,,0.870452880859375,-0.941009521484375,-0.067169189453125
104,5.746,0.1308031852112127,-0.2113544985260727,0.06366003609575382,-0.4045638948993366,-0.6617840950622248,,0.7925872802734375,-0.8969573974609375,-0.2396392822265625
105,5.796,0.011305161160095945,-0.2775561695579607,0.18231551701783677,-0.3472359641928307,-0.6593949120820916,,0.6707000732421875,-0.982574462890625,-0.0787353515625
106,5.846,0.0446386923203127,-0.06423097990745152,-0.0029197913884950535,-0.0454107866706818,-0.5702905068984373,,0.61492919921875,-0.88482666015625,-0.04022216796875
107,5.896,-0.02852215682556536,0.03404901281509898,0.0023667246057224173,-0.0693420329257429,-0.6412388316302529,,0.6127166748046875,-0.7314453125,-0.05084228515625
108,5.946,0.019703035050381956,-0.01943771869758648,-0.0019911085917094645,-0.1019020687462488,-0.7100485518636805,,0.7297515869140625,-0.7199249267578125,-0.0737457275390625
109,5.995,0.028131129582214753,-0.15073629272359845,0.01521987522857271,-0.062773947831014,-0.6890472151443477,,0.7171783447265625,-0.8740234375,-0.0302734375
110,6.045,0.25777451158160636,-0.20881871179875378,-0.08759131397433478,-0.0037694421040803,-0.6598738038480813,,0.9176483154296876,-0.9601898193359376,-0.090423583984375
111,6.095,0.2372302565530291,-0.39203222790804915,-0.20007142215296134,0.0681211847250164,-0.6142559495016584,,0.8514862060546875,-1.1793060302734375,-0.1463165283203125
112,6.145,0.8978762593816998,-0.2861237086779783,0.12925391157783714,0.1754406433548629,-0.5324673685479877,,1.4303436279296875,-1.11944580078125,0.2777557373046875
113,6.404,1.3106957671479007,3.021656817444759,-0.14324185949761017,-0.211716752156727,-0.7182196381255367,,2.0289154052734375,2.34161376953125,-0.290557861328125
114,6.454,-1.5848298182545606,0.330891285243445,1.0608437711313892,-0.1363680189678378,-0.6444764246998729,Straight,-0.9403533935546876,-0.4265899658203125,0.956573486328125
115,6.504,-1.6278011360000395,0.7026873048399527,0.7582138765029217,-0.0960340544322461,-0.6331874885391019,,-0.9946136474609376,-0.0677337646484375,0.6838836669921875
116,6.554,-1.6045450743648808,0.47642303515164364,0.9021936297526084,-0.1215009070386701,-0.6548075255367559,,-0.949737548828125,-0.273773193359375,0.81036376953125
117,6.604,-1.6968301959505456,0.38905918369988446,0.7522299607791797,-0.1428084211533409,-0.6954569049349206,,-1.001373291015625,-0.3221435546875,0.6496124267578125
118,6.653,-1.902315650448021,0.11437119054269806,0.8032624061825928,-0.1972630495959828,-0.7696099619714584,,-1.1327056884765625,-0.5115966796875,0.67730712890625
119,6.703,-1.9432920018166224,-0.012786459921341142,0.5903569988058046,-0.3104629182670151,-0.8575681248634973,,-1.085723876953125,-0.501739501953125,0.4306640625
120,6.753,0.03522701264721606,0.04002880003286147,-0.043483290887432635,0.7357271914121633,0.5119878769050286,,-0.4767608642578125,-0.541748046875,0.5885009765625
121,6.803,0.0043463018390026,0.03649080943813943,-0.03258031991409083,0.6660071253847081,0.0884985235186901,,-0.0841522216796875,-0.7065277099609375,0.6308135986328125
122,6.853,0.1439286117998439,-0.1086957950510492,0.320048322814529,0.558610562889754,-0.0647353286298436,,0.2086639404296875,-0.9363861083984376,0.8774871826171875
123,6.903,0.01215394540024739,-0.024778543677666187,0.01410628326110619,0.4947400732299622,-0.3921276708106901,,0.4042816162109375,-0.82421875,0.4692230224609375
124,6.952,0.002193915142865821,-0.002914165242795086,0.0010919510113520658,0.3508808838918855,-0.5761904842711967,,0.5783843994140625,-0.7682647705078125,0.287872314453125
125,7.002,-0.03126886615939328,0.03441357857881011,-0.006692573812000002,0.1908983707955319,-0.6656225038547058,,0.6343536376953125,-0.698150634765625,0.135772705078125
126,7.052,-0.06038799737951084,0.08843266721317267,0.0008253276407816906,-0.0093324302586282,-0.5639127776529483,,0.5035247802734375,-0.73736572265625,-0.0068817138671875
127,7.102,-0.042877342424725295,0.07343571309794861,-0.0023480246745063056,0.031957548556859,-0.5040284654716003,,0.461151123046875,-0.7898101806640625,0.0252532958984375
128,7.152,-0.012500197914801392,0.020906715788687524,0.0054590213657550735,-0.2526426842519397,-0.5007509303366764,,0.488250732421875,-0.8166046142578125,-0.213226318359375
129,7.202,0.035766758170541424,-0.07764573408453268,-0.030488717215094774,-0.3654969638444879,-0.3940733297200836,,0.429840087890625,-0.933135986328125,-0.3664093017578125
130,7.251,0.017914674747373904,-0.03755526566784306,-0.019481739606673543,-0.4604780824301071,-0.3899222393151261,,0.4078369140625,-0.8549652099609375,-0.443511962890625
131,7.301,0.0016562000457310821,-0.003582564947924971,-0.001539495522317691,-0.3948097016718743,-0.3909371837433314,,0.3925933837890625,-0.8492279052734375,-0.36492919921875
132,7.351,-0.0030229769878284962,0.005249493782947812,0.0018040221303782245,-0.3250006021611563,-0.4782732211284535,,0.475250244140625,-0.825286865234375,-0.2836151123046875
133,7.401,0.02280344648541066,-0.03854254214611974,-0.00958618775361042,-0.2413636741080135,-0.4979179890614643,,0.520721435546875,-0.880126953125,-0.218902587890625
134,7.451,0.032455421908545556,-0.05153286419728331,-0.011399815600694946,-0.2159927042320105,-0.5238189921539544,,0.5562744140625,-0.8832550048828125,-0.1953887939453125
135,7.501,0.15261739487791237,-0.10114656449101211,-0.011709203305256821,-0.2138163450524,-0.5139170289502126,,0.666534423828125,-0.93914794921875,-0.19512939453125
136,7.55,0.288528695179182,-0.03726805863069671,-0.19912706303299282,-0.1899196546547131,-0.5025021886098805,,0.7910308837890625,-0.8861083984375,-0.3633270263671875
137,7.6,0.4825974930163337,-0.09533626080479851,-0.1376165296591832,-0.1224672339205705,-0.4583815108899163,,0.94097900390625,-0.9774017333984376,-0.2464599609375
138,7.65,0.7665836574524758,-0.06628612212978235,0.06841240126135797,0.0097632017570866,-0.3849818943053367,,1.1515655517578125,-0.989166259765625,0.077423095703125
139,7.7,0.89193524834212,0.1927971487070681,0.27195114782941476,0.231991775462637,-0.25668535712663,,1.14862060546875,-0.7473297119140625,0.4961700439453125
140,7.959,-0.04089258510270749,1.9976845365728892,-1.967575139026899,-0.3219472878591817,-0.4373769601027075,,0.396484375,1.1462860107421875,-2.2570953369140625
141,8.009,-1.5829373213482199,0.5131025800573401,2.334161536149897,-0.0732716457851748,-0.3503323408794699,Straight,-1.23260498046875,-0.4210052490234375,2.265533447265625
142,8.059,-1.4540871693439097,1.0380941525778156,0.3442634823355643,-0.1976352978522117,-0.4449166371173472,,-1.0091705322265625,0.160186767578125,0.167266845703125
143,8.109,-1.6610732140181639,0.7545927882048231,0.9446703386930102,-0.2438134829310502,-0.5353560509322264,,-1.1257171630859375,-0.064544677734375,0.738739013671875
144,8.159,-1.9788410589326206,0.5076218777793337,0.8978005265456628,-0.3056201755342729,-0.6545002386201205,,-1.3243408203125,-0.2122650146484375,0.6667327880859375
145,8.208,-1.478119183192515,0.308666291545006,0.8082962622941828,-0.4617998801351112,-0.8029635435440774,,-0.6751556396484375,-0.220001220703125,0.533050537109375
146,8.258,0.006725335242889985,0.007926162930714464,-0.008323418394582616,0.7241771313532486,0.5050316096569525,,-0.4983062744140625,-0.5872802734375,0.6167144775390625
147,8.308,0.03218839858313899,0.18770022586147006,-0.1184270161383496,0.5336048262597406,0.1435317823722015,,-0.1113433837890625,-0.6492767333984375,0.4096527099609375
148,8.358,-0.003827194063856801,0.1461325197759249,-0.04959753821036017,0.3213943290081331,-0.0247927702357318,,0.020965576171875,-0.8005218505859375,0.271697998046875
149,8.408,-0.0013904740566785985,0.061606889119602326,-0.011860406556930214,0.1890461018060996,-0.0221576859707411,,0.0207672119140625,-0.9201202392578124,0.1771392822265625
150,8.458,-0.0004672820888973993,0.056881820494712465,-0.008369189763499957,0.1455657697069335,-0.0081271941982724,,0.007659912109375,-0.93243408203125,0.1371917724609375
151,8.507,-0.004980905617431405,0.07749179947455676,0.014279555311318054,-0.181220734380247,-0.0630863743674314,,0.05810546875,-0.90399169921875,-0.1665802001953125
152,8.557,-0.0024352529643335147,0.0191705378703928,0.0030524394808003064,-0.1572447332696548,-0.1244750478862085,,0.122039794921875,-0.9607086181640624,-0.1529693603515625
153,8.607,0.0009386449834483113,-0.004454574552137824,-0.0005658626613157802,-0.126016896013679,-0.2046125024774892,,0.2055511474609375,-0.975494384765625,-0.1239166259765625
154,8.657,0.008031841759682912,-0.0672707787152359,-0.23147000440583537,-0.1718135140089171,-0.2437381777715671,,0.25177001953125,-1.0226898193359375,-0.398101806640625
155,8.707,0.022421985715459114,-0.06152807719861231,-0.008723128298967264,-0.1403710425754935,-0.3393944205345409,,0.36181640625,-0.99285888671875,-0.1407623291015625
156,8.757,0.016932361084564,-0.06991118080243719,-0.02651983247895534,-0.3546752603312592,-0.220860607665436,,0.23779296875,-0.9818115234375,-0.3724365234375
157,8.806,0.01035127766154681,-0.026279482824486222,-0.006012906014402963,-0.2230421989918113,-0.3584536539790782,,0.368804931640625,-0.936309814453125,-0.2142333984375
158,8.856,0.008359617205577707,-0.024284594376159263,-0.007670915716634863,-0.301206221153515,-0.3118765888491098,,0.3202362060546875,-0.9302825927734376,-0.293853759765625
159,8.906,0.007773695701119299,-0.016015719321098243,-0.004136074988666499,-0.2500472704668208,-0.4253317730488807,,0.43310546875,-0.892303466796875,-0.230438232421875
160,8.956,0.029381540033382614,-0.06763576009200467,-0.011846146595189927,-0.1725200619682792,-0.3933937285213049,,0.4227752685546875,-0.9732208251953124,-0.1704559326171875
161,9.006,0.124480015528732,-0.061172163764018794,-0.043394479772341066,-0.1772989652240131,-0.389649623143143,,0.514129638671875,-0.9675445556640624,-0.2066802978515625
162,9.056,0.09974318110801089,-0.13740328348110264,-0.07557821599273729,-0.167301506633545,-0.3672978345169891,,0.467041015625,-1.0543975830078125,-0.2311859130859375
163,9.105,0.1542144832828392,-0.09272732875219503,-0.1585858339289492,-0.147030000885702,-0.3520416202327858,,0.506256103515625,-1.0185394287109375,-0.29620361328125
164,9.155,0.2174028650051406,-0.001403780166536861,-0.2585944404652124,-0.121535985858167,-0.3274884924167344,,0.544891357421875,-0.9392547607421876,-0.3734283447265625
165,9.205,0.2192079332639224,-0.11321292423680474,0.04657979454075979,-0.0490651173027542,-0.2682798597048276,,0.48748779296875,-1.0753936767578125,-0.0006866455078125
166,9.255,0.6421915155971958,0.14135175961771274,0.053754349558784026,0.1511791145067115,-0.2001699345981167,,0.8423614501953125,-0.8271484375,0.201873779296875
167,9.524,1.513345973471037,3.3902847131352187,-2.2812766134858413,0.0292413798749681,-0.1352898907867755,,1.6486358642578125,2.39990234375,-2.2523040771484375
168,9.584,-1.7704672862914397,-0.035226573414747,2.16685183598317,0.0482819147663347,-0.1483359386351897,Straight,-1.62213134765625,-1.02301025390625,2.214599609375
169,9.634,-1.2402458709257669,1.0824457562629637,0.25691480355935153,-0.1550925794279413,-0.3106804412382669,,-0.9295654296875,0.1434326171875,0.1094970703125
170,9.684,-1.2441192871001774,0.6644134300970252,0.7480933968417335,-0.2348647348110581,-0.4512268310454899,,-0.7928924560546875,-0.203033447265625,0.5384979248046875
171,9.733,-1.490616135892044,0.40543431388247775,0.5936979019267592,-0.3160719770842097,-0.5773776105014191,,-0.913238525390625,-0.3691864013671875,0.33563232421875
172,9.783,-0.017904142251719213,-0.021418452881052596,0.01601994646344934,0.5989492004455361,0.5562688313810933,,-0.5741729736328125,-0.6868743896484375,0.5137481689453125
173,9.833,0.041156396259890704,0.132080033448299,-0.040170245245052194,0.2909758134494597,0.2856937497755157,,-0.244537353515625,-0.7847747802734375,0.238677978515625
174,9.883,3.888300941119998e-05,0.09402972121362718,-0.04397668364417662,0.4236459028176421,0.0003745763687862,,-0.000335693359375,-0.811798095703125,0.379669189453125
175,9.933,-0.010386681418193905,0.10090220526521765,-0.01969196634541276,0.1915453215971289,-0.1005203484103814,,0.0901336669921875,-0.8756103515625,0.1708831787109375
176,9.983,-0.0014487898981438013,0.025850924943290887,-0.003229526014484743,0.1239652075471026,-0.0555259383356438,,0.0540771484375,-0.96490478515625,0.12054443359375
177,10.033,-6.792643340480103e-05,0.0029151910357426702,0.00026314771991176045,-0.0899022141472684,-0.0232002506521548,,0.02313232421875,-0.992767333984375,-0.0896148681640625
178,10.082,-0.0015046356933344981,0.028802498001890053,0.005674731668963984,-0.193306071445468,-0.0511872528808345,,0.0496826171875,-0.9510498046875,-0.1873779296875
179,10.132,-0.000653399647077401,0.0331810837091292,0.0061294855962781,-0.1816548671631334,-0.0193606750377024,,0.018707275390625,-0.9499969482421876,-0.1754913330078125
180,10.182,-0.008325875050762113,0.06411466114564524,0.03105167050226154,-0.4358844691867335,-0.1160834434101371,,0.107757568359375,-0.829803466796875,-0.401885986328125
181,10.232,0.0034463624946002025,-0.049830727444229894,-0.021770981743513884,-0.4003563246832607,-0.0632498044975873,,0.0666961669921875,-0.96435546875,-0.42132568359375
182,10.282,0.2220766061111914,-0.07605592119900906,0.028399005585084403,-0.408014762410585,-0.0940397268966211,,0.3161163330078125,-0.9849853515625,-0.3778076171875
183,10.332,0.14202176473649958,-0.14721206538651554,0.06384681048212082,-0.4160934072695311,-0.1229318485447504,,0.26495361328125,-1.0496368408203125,-0.349090576171875
184,10.381,0.026634729375908495,-0.07627518450407111,-0.015477485892510523,-0.1988635878178551,-0.323783361444404,,0.3504180908203125,-1.003509521484375,-0.2036285400390625
185,10.431,0.023146927149406582,-0.06225389134002979,-0.007214601823804942,-0.1151194965484092,-0.3464667203115309,,0.3696136474609375,-0.99407958984375,-0.115203857421875
186,10.481,0.02128660208821609,-0.06180745741045135,-0.010706340858798097,-0.1706791309832292,-0.3213495063102214,,0.3426361083984375,-0.994873046875,-0.172332763671875
187,10.531,0.015293002750149887,-0.037347369405899444,-0.012188231849550535,-0.3102447306747033,-0.3627587550623501,,0.3780517578125,-0.923248291015625,-0.301300048828125
188,10.581,0.0011880987305856183,-0.0029536241621329618,-0.0007130378699680973,-0.2346697995195865,-0.3641683465819144,,0.3653564453125,-0.9082794189453124,-0.219268798828125
189,10.631,0.009395719593990104,-0.019140623150703417,-0.0045993260761705845,-0.2336407964886177,-0.4307440509138224,,0.4401397705078125,-0.896636962890625,-0.2154541015625
190,10.68,0.09883591560983102,-0.1463304982649969,0.06287843036211943,-0.2316906515034582,-0.4232740697417315,,0.5221099853515625,-1.027679443359375,-0.14703369140625
191,10.73,0.2559900291448705,-0.09516933153590224,-0.023058074996178457,-0.2306548770360399,-0.419348715972317,,0.6753387451171875,-0.978515625,-0.232452392578125
192,10.78,0.2562011172411086,-0.03414187958583992,-0.19767319356654314,-0.2071386441601694,-0.3954865048292039,,0.6516876220703125,-0.9326934814453124,-0.3879241943359375
193,10.83,0.3547354019106477,0.03457675081793776,-0.14203583128087155,-0.1637117208740703,-0.3536843978940398,,0.7084197998046875,-0.8881683349609375,-0.295166015625
194,10.88,0.042021608966202995,-0.06494579290714142,-0.02220702181566686,-0.3235406075399373,-0.5221415990416095,,0.5641632080078125,-0.8719329833984375,-0.2981414794921875
195,10.93,0.4256457287339201,-0.17115243432025828,0.27537515680103225,-0.1634557251007981,-0.4113446277113924,,0.8369903564453125,-1.07037353515625,0.1263885498046875
196,11.179,0.8312304593203401,3.5862162655627867,1.6225232246231198,-0.5426473335119256,-0.5959545992734099,,1.42718505859375,2.911712646484375,1.186767578125
197,11.229,-1.6268616020580708,0.24035556640782607,0.45444215877391414,-0.4013407510268275,-0.533508330573696,,-1.093353271484375,-0.534332275390625,0.114990234375
198,11.279,-1.517040492317093,0.6912516960702566,1.463107286942481,-0.4314856601929592,-0.5675013077467806,Straight,-0.9495391845703124,-0.0515289306640625,1.1078338623046875
199,11.328,-1.310736441089593,0.6916674030601324,1.050358575259644,-0.462629817076204,-0.6041476959724055,,-0.7065887451171875,-0.014801025390625,0.68170166015625
200,11.378,-1.3106847057075106,0.45002363342642326,0.8411353747288353,-0.4959843032483163,-0.6249394664496981,,-0.6857452392578125,-0.2278594970703125,0.4539337158203125
201,11.428,-1.6405200250965022,0.15027203296081149,1.0487852541943918,-0.5221387597945459,-0.6696948297840023,,-0.9708251953125,-0.48309326171875,0.6610260009765625
202,11.478,-1.6455547821298997,0.10689004595745022,0.8212380831159445,-0.6149110121237178,-0.7490246307627123,,-0.8965301513671875,-0.41558837890625,0.4138336181640625
203,11.528,-1.7918344554972647,-0.2239163006386694,0.8527908436083844,-0.7218591060024254,-0.8350778637003897,,-0.956756591796875,-0.6046295166015625,0.4556732177734375
204,11.578,0.08767133712108288,0.09563026105728833,-0.03500979040985652,0.343781661308459,0.6524296379023329,,-0.56475830078125,-0.61602783203125,0.22552490234375
205,11.627,0.025404275805423204,0.07291682185110537,-0.031857214970977266,0.4003557738662324,0.3041365756101107,,-0.2787322998046875,-0.8000335693359375,0.3495330810546875
206,11.677,0.010166789562145506,0.036353321730604016,-0.0005130388420633673,0.0141111660686716,0.269306804210583,,-0.2591400146484375,-0.926605224609375,0.0130767822265625
207,11.727,0.000906589862571,-0.02731218136303515,0.008000887887804786,0.2811278449801258,-0.031838771465554,,0.032745361328125,-0.9864959716796876,0.2889862060546875
208,11.777,0.0027851571139614895,-0.017702187837175032,-0.00013162876020868935,-0.0074355284603069,-0.1554179678860385,,0.158203125,-1.005523681640625,-0.007476806640625
209,11.827,0.020958883316012922,-0.07445477833145331,-0.00947120906059408,-0.1261906423025793,-0.2689581088714871,,0.2899169921875,-1.0299072265625,-0.131011962890625
210,11.877,0.011907009934036705,-0.03432086652404975,-0.0016780541925207546,-0.0488347826219034,-0.3274179412378383,,0.339324951171875,-0.9780731201171876,-0.047821044921875
211,11.926,-0.014648233642142405,0.028780871535142194,0.0026607602237714023,-0.0920563540643075,-0.4520566809077674,,0.437408447265625,-0.8594207763671875,-0.0794525146484375
212,11.976,-0.006855627810858078,0.01676429217716713,0.0024287390069454295,-0.1433788524336962,-0.3751570194124206,,0.3683013916015625,-0.9006195068359375,-0.1304779052734375
213,12.026,-0.027885138161770406,0.05899319791324342,0.007602404255869527,-0.1278122312155547,-0.4244763246852079,,0.3965911865234375,-0.839019775390625,-0.108123779296875
214,12.076,0.014008245874206127,-0.03747139708568281,0.0012801499059213808,0.0341434695123215,-0.3499901672117314,,0.3639984130859375,-0.9736785888671876,0.03326416015625
215,12.126,0.0008488701226639916,-0.0019054500720685486,-0.0003902799140290125,-0.2006571680013379,-0.399999518549211,,0.400848388671875,-0.8997802734375,-0.184295654296875
216,12.176,0.028875926666577123,-0.0825317558855394,0.0027188173248230765,0.0329248207252326,-0.3300870860287354,,0.3589630126953125,-1.025970458984375,0.0337982177734375
217,12.226,0.0141377356439093,-0.03654690226436186,-0.007728753841480668,-0.2068991023314602,-0.3539652916998407,,0.36810302734375,-0.951568603515625,-0.20123291015625
218,12.275,0.02669252697587754,-0.07383542343699179,-0.0071654348043695415,-0.0965922474756707,-0.3385723656022474,,0.365264892578125,-1.0103759765625,-0.098052978515625
219,12.325,0.03272175288916351,-0.09278432972976924,-0.0167714388300772,-0.1778747240282382,-0.327858691446774,,0.3605804443359375,-1.0224456787109375,-0.184814453125
220,12.375,0.17495408447895822,-0.03647922904656442,0.002393944344428245,-0.1858319563211232,-0.3183930834897918,,0.49334716796875,-0.967926025390625,-0.17376708984375
221,12.425,0.022471743175869585,-0.045027244055346416,-0.011114348134040275,-0.2396435057966666,-0.4360396093631929,,0.4585113525390625,-0.918731689453125,-0.226776123046875
222,12.475,0.02756924181533499,-0.05409116047790841,-0.007785395470022521,-0.1424629354946203,-0.4504123255674775,,0.4779815673828125,-0.93780517578125,-0.134979248046875
223,12.525,0.07243078693939958,-0.16581806221943396,0.18449177538479752,-0.0789002475654774,-0.3888576652090379,,0.4612884521484375,-1.0842437744140625,0.1118011474609375
224,12.574,0.8578081964304436,0.008744101904994972,0.13785929234588767,0.1517775054206908,-0.2982281805226814,,1.156036376953125,-0.9346923828125,0.2827301025390625
225,12.824,2.2508676912334824,3.3381694279594973,0.6378777934131485,-0.5017407217204175,-0.4775716398212049,,2.7284393310546875,2.5781707763671875,0.197052001953125
226,12.873,-1.6630201239420128,0.2502069166260591,1.5944103006458212,-0.2811014871279023,-0.4386548895670129,,-1.224365234375,-0.612213134765625,1.341796875
227,12.923,-1.6034243675352986,1.114541721156892,1.2463890612983346,-0.4168374876758342,-0.5863345237852986,Straight,-1.01708984375,0.378204345703125,0.908721923828125
228,12.973,-1.572378453155924,0.5860751485616782,0.5086316097920691,-0.5067119066837615,-0.6662962998356114,,-0.9060821533203124,-0.056793212890625,0.1307830810546875
229,13.023,-1.4905977451360535,0.48267422405719895,0.9228375220885279,-0.5017480830519421,-0.7396669590032411,,-0.7509307861328125,-0.099456787109375,0.585174560546875
230,13.073,-1.6636353058874356,0.0404893312888549,0.9507828611167699,-0.5808362257314346,-0.800155691629623,,-0.8634796142578125,-0.44775390625,0.6024017333984375
231,13.123,-1.7104221658459315,-0.27161956969056955,0.7074044881721713,-0.6819046810891183,-0.8623539285412439,,-0.8480682373046875,-0.6419525146484375,0.362152099609375
232,13.172,-0.018820590109811297,-0.02167019624283084,0.012144146026994873,0.4888741331947625,0.6038905915308137,,-0.622711181640625,-0.7169952392578125,0.4018096923828125
233,13.222,0.03246702968241699,0.06266956791453915,-0.0069926657284569566,0.1108917553664451,0.457759998432417,,-0.42529296875,-0.8209228515625,0.0915985107421875
234,13.272,0.006806317858889993,0.03309812613668206,-0.009019974861582125,0.2629332610407723,0.19461149364014,,-0.18780517578125,-0.91326904296875,0.2488861083984375
235,13.322,0.006405859476596193,0.04263484896456604,-0.007904150697263551,0.1822856583179054,0.1461458497109712,,-0.139739990234375,-0.9300537109375,0.17242431640625
236,13.372,0.0014611380025800966,0.0339663440386081,-0.0023693693254815407,0.0695872848625883,0.0428734915182051,,-0.041412353515625,-0.9626922607421876,0.0671539306640625
237,13.422,0.0058637219472326835,-0.05719174771347424,-0.006815679084778467,-0.1183350830155957,-0.1012834948496423,,0.107147216796875,-1.0450592041015625,-0.124542236328125
238,13.472,0.003530220453856897,-0.019523330003387906,-0.0031417129173145486,-0.1588769992523301,-0.1757452922414556,,0.1792755126953125,-0.991455078125,-0.1595458984375
239,13.521,-0.009745704962669077,0.031801630039102746,0.00964389070053362,-0.2902012280760822,-0.2814131854314191,,0.27166748046875,-0.8864898681640625,-0.268829345703125
240,13.571,-0.019380755887551615,0.04101255439689511,0.01814785545437647,-0.4046493673849141,-0.3966848330359891,,0.3773040771484375,-0.798431396484375,-0.353302001953125
241,13.621,-0.009109000560519609,0.021459464346570978,0.0084540340864116,-0.3665359921184649,-0.3673243325917696,,0.35821533203125,-0.843902587890625,-0.33245849609375
242,13.671,-0.022495101690186703,0.05777763450516182,0.014136639822071417,-0.2376627749868385,-0.3537328946589367,,0.33123779296875,-0.85076904296875,-0.208160400390625
243,13.721,0.0058558846771820106,-0.018968525017450832,-0.006619029398237941,-0.3294654350622233,-0.2798344229400055,,0.2856903076171875,-0.9254150390625,-0.3229217529296875
244,13.771,0.009855943606184692,-0.025594819344034292,-0.008944196088178924,-0.3298906783779506,-0.3416455212375653,,0.35150146484375,-0.912811279296875,-0.3189849853515625
245,13.82,0.004282572341966995,-0.014564605209054782,-0.00459012092590666,-0.3005818188483771,-0.2700246786345955,,0.2743072509765625,-0.932891845703125,-0.29400634765625
246,13.87,0.018349854438273305,-0.05526705080401351,-0.016255884892313777,-0.2821802227976737,-0.3035037832570392,,0.3218536376953125,-0.9693756103515624,-0.285125732421875
247,13.92,0.02313357781824721,-0.06798288601042435,-0.018726127881674437,-0.2655629886725388,-0.3117205481583153,,0.3348541259765625,-0.984039306640625,-0.27105712890625
248,13.97,0.01970289853695889,-0.05527843448431902,-0.018020760816401582,-0.3099457334381049,-0.3209495672833536,,0.3406524658203125,-0.9557342529296876,-0.3115692138671875
249,14.02,0.015243771491041891,-0.04276592508940458,-0.013510913045027995,-0.3012506648539144,-0.3218076201105206,,0.3370513916015625,-0.945587158203125,-0.298736572265625
250,14.07,0.009304229101609496,-0.026930109863207208,-0.007122271575067091,-0.2556816394757292,-0.3168066107421405,,0.32611083984375,-0.9438934326171876,-0.2496337890625
251,14.119,0.0032506699364984737,-0.007691798931207416,-0.0018402825584708793,-0.2326855571144986,-0.380156922836939,,0.3834075927734375,-0.9072265625,-0.2170562744140625
252,14.169,0.03380378664051242,-0.07661069677431331,-0.025572113761739457,-0.3166201490063195,-0.3860875707813626,,0.419891357421875,-0.9516143798828124,-0.3176422119140625
253,14.219,0.0354767812736681,-0.08146760200558656,-0.01895399304730408,-0.2266046738056904,-0.3904723154060194,,0.4259490966796875,-0.9781341552734376,-0.227569580078125
254,14.269,0.02017067457453592,-0.05318739444285381,-0.002279905927380456,-0.0428262038873041,-0.3543105265973391,,0.374481201171875,-0.987457275390625,-0.042327880859375
255,14.319,1.1910481898397782,-0.7270797191266385,-0.012752274809121028,0.1257249417944966,-0.2850260289102217,,1.47607421875,-1.6779937744140625,0.107757568359375
256,14.568,1.2128768367829874,2.7927163143636724,-1.9628637973811869,-0.1875617108042131,-0.3126663761076377,,1.525543212890625,1.859710693359375,-2.141021728515625
257,14.618,-1.7348699719307126,0.16139868601255425,2.2050433873983555,-0.0219208256843245,-0.2339849621650876,,-1.500885009765625,-0.81060791015625,2.1837310791015625
258,14.668,-0.9470564496573586,1.4090024784444592,0.6517023316340308,-0.157472127331046,-0.3750044477042336,Straight,-0.572052001953125,0.4935455322265625,0.5057220458984375
259,14.718,-1.3682312453651446,0.9988061008946196,0.5988527651662034,-0.1233675127547575,-0.4074615920448323,,-0.9607696533203124,0.092559814453125,0.4861907958984375
260,14.767,-1.4966305094829304,0.7813787859049219,1.1062054988062124,-0.1290403598512744,-0.4842098551860554,,-1.012420654296875,-0.0862579345703125,0.9933013916015624
261,14.817,-1.823390869934264,0.5159604979018186,0.9576886513807599,-0.2506971217632861,-0.6200522468873891,,-1.203338623046875,-0.2435455322265625,0.7610015869140625
262,14.867,-1.6241426527347111,0.26645299995614646,1.1167615290533617,-0.451191471389807,-0.7562379896487738,,-0.8679046630859375,-0.3174591064453125,0.8215484619140625
263,14.917,0.02516686017711245,0.024041748722616663,-0.02414298850556429,0.7085909020553295,0.5941365867396124,,-0.5689697265625,-0.5435333251953125,0.5458221435546875
264,14.967,0.026796235537896895,0.1914053851705848,-0.10643760235664057,0.4859962609079415,0.1214465040925844,,-0.0946502685546875,-0.67608642578125,0.3759613037109375
265,15.017,-0.010795876907456606,0.08921080722551988,-0.029827898784519857,0.3170979515435706,-0.1140215849152691,,0.1032257080078125,-0.852996826171875,0.2852020263671875
266,15.066,0.00987370048694089,-0.07424345663455156,0.00964121426670772,0.128778163355949,-0.1307512995130591,,0.140625,-1.057403564453125,0.1373138427734375
267,15.116,0.019563942494106007,-0.0953081620695877,-0.011807283311153202,-0.1229454671244658,-0.199613303599644,,0.21917724609375,-1.0677490234375,-0.1322784423828125
268,15.166,0.00694235961152212,-0.01834848586938187,-0.0068712053193038525,-0.3506993482171195,-0.3339847644119154,,0.3409271240234375,-0.90106201171875,-0.337432861328125
269,15.216,0.016299248665820304,-0.07762057940663081,-0.02364003371789003,-0.2913463583729411,-0.1969423284826172,,0.2132415771484375,-1.0155029296875,-0.3092803955078125
270,15.266,-0.0140911653921732,0.042511642445283715,0.006734689618779238,-0.1564686188641008,-0.3111340120718607,,0.2970428466796875,-0.896148681640625,-0.1419677734375
271,15.316,0.0009394349149967895,-0.005219816200214944,-0.0011927944147732406,-0.222770412569361,-0.1728123961396907,,0.1737518310546875,-0.965423583984375,-0.220611572265625
272,15.365,-0.0050455943082242105,0.016360741254554667,0.006981851544035522,-0.3924990181680639,-0.2728831187222867,,0.2678375244140625,-0.8684844970703125,-0.3706207275390625
273,15.415,0.007635540688086584,-0.024623318499293778,-0.009153953605890996,-0.3484591314928867,-0.2791076233744134,,0.2867431640625,-0.9246978759765624,-0.3437652587890625
274,15.465,0.007093017559205689,-0.028713364071932257,-0.01261266103176295,-0.4021716792223044,-0.2205986328314193,,0.227691650390625,-0.921722412109375,-0.404876708984375
275,15.515,0.011253897588447803,-0.03900444696642391,-0.014884615546035929,-0.3565344940211262,-0.2602762537787397,,0.2715301513671875,-0.9410858154296876,-0.359130859375
276,15.565,0.01835348901975059,-0.051845165411425476,-0.019053452886701128,-0.3449497003987353,-0.3153257101989994,,0.33367919921875,-0.9425811767578124,-0.346405029296875
277,15.615,0.014923384716071797,-0.03723018057468297,-0.010975209170296318,-0.2827627829237187,-0.3588711709479907,,0.3737945556640625,-0.932525634765625,-0.27490234375
278,15.664,0.009090924433776792,-0.021449005413072597,-0.005169056317527065,-0.2342854711389724,-0.3809695003709107,,0.3900604248046875,-0.9203033447265624,-0.2217864990234375
279,15.714,0.0024710145738706113,-0.004617602163328849,-0.0008870143346188519,-0.1886451545780982,-0.4651956114026919,,0.4676666259765625,-0.873931884765625,-0.167877197265625
280,15.764,0.02864560031988489,-0.05960931933628577,-0.014464054471165888,-0.2358049724253808,-0.4231366262426151,,0.4517822265625,-0.94012451171875,-0.228118896484375
281,15.814,0.03542432781710836,-0.058478569353908716,-0.011267556607842344,-0.1891984027654022,-0.5112217903469541,,0.5466461181640625,-0.90240478515625,-0.1738739013671875
282,15.864,-0.04888875947646709,-0.14780460740096324,-0.04431027459228094,-0.0748399100569537,-0.4615321920936546,,0.4126434326171875,-1.032440185546875,-0.1107025146484375
283,15.914,0.09925459262677172,-0.15236614492028622,0.012472474177946863,0.0399617086299732,-0.4184608614747908,,0.5177154541015625,-1.05987548828125,0.04876708984375
284,15.964,0.08310871441832612,-0.17739735625100117,0.12530437784801887,0.1922995010485464,-0.3603116957379239,,0.44342041015625,-1.0928192138671875,0.3046875
285,16.013,0.5242920998454272,-0.5711652735547958,0.17050267476879366,0.2867806882005466,-0.3115691062092602,,0.8358612060546875,-1.481475830078125,0.4430084228515625
286,16.248,0.3174862347719546,3.0404415121055166,-0.41021310444470105,0.6138723270448386,-0.7453952349546079,,1.0628814697265625,2.5142059326171875,-0.0009918212890625
287,16.297,-1.7969180480207632,0.3135280709137986,0.9073651896769271,0.7322179697331481,-0.7146884337629505,Straight,-1.0822296142578125,-0.162841796875,1.4195098876953125
288,16.347,-1.0794731153654433,0.829776876946339,0.47153966872924313,0.6357707371201713,-0.7433982862638808,,-0.3360748291015625,0.313507080078125,0.8967742919921875
289,16.397,-0.9481524806510943,0.9149461838959986,0.3685489582893362,0.5281669450474928,-0.7707995753776568,,-0.1773529052734375,0.3739776611328125,0.7050323486328125
290,16.447,-1.353124606907682,0.49971659410234914,0.6294601568254994,0.530185137596118,-0.7648525121811195,,-0.5882720947265625,-0.0464935302734375,0.97100830078125
291,16.497,-1.6419960919627838,0.29954752010088803,0.37210087451365853,0.5170943697456238,-0.7867104474315338,,-0.85528564453125,-0.2288360595703125,0.691314697265625
292,16.547,-1.9508887242180921,0.29745088852885926,0.6408962174541686,0.5038815085675028,-0.8076239537102796,,-1.1432647705078125,-0.2119140625,0.9380340576171876
293,16.597,-2.1286505060243424,0.18596604449163412,0.3884180067860026,0.3599009765461092,-0.8918340997743422,,-1.23681640625,-0.236083984375,0.5512237548828125
294,16.646,-2.078489749584338,-0.09009817205585496,0.8163616727520844,0.1409235060953423,-0.966429202709338,,-1.112060546875,-0.3444671630859375,0.852569580078125
295,16.696,0.07781847764028627,0.06482898749984234,-0.05354931624701492,0.6368456447197754,0.6792283897496613,,-0.601409912109375,-0.5010223388671875,0.413848876953125
296,16.746,0.05971443784782479,0.263434447897388,-0.11671863165951296,0.4050851709903778,0.2029334319884498,,-0.143218994140625,-0.6318206787109375,0.279937744140625
297,16.796,-0.0018665667140944017,0.05307667136734007,-0.010405803865898872,0.1923897734067618,-0.0344898577297194,,0.032623291015625,-0.9276580810546876,0.1818695068359375
298,16.846,0.01906784908233411,-0.06657989041934687,0.013967851426843536,0.2053211765953733,-0.2698878393942284,,0.2889556884765625,-1.0089569091796875,0.211669921875
299,16.896,0.014658066672413206,-0.05256143480477804,-0.0028658374244914867,-0.0544427125967864,-0.2682551413353993,,0.2829132080078125,-1.0144805908203125,-0.0553131103515625
300,16.945,0.010836974326584481,-0.023787704461561088,-0.003794786574828707,-0.1575352700334424,-0.4102750862202905,,0.421112060546875,-0.9243621826171876,-0.1474609375
301,16.995,-0.015043012444098114,0.033658304951743157,0.005319751388633248,-0.1561138125049,-0.4038522165456606,,0.3888092041015625,-0.8699493408203125,-0.1374969482421875
302,17.045,0.023695468570094025,-0.0550106939802405,-0.008330655702485507,-0.1497298643154141,-0.391831875179906,,0.41552734375,-0.9646759033203124,-0.146087646484375
303,17.095,0.018331394481780117,-0.039118084041511736,-0.010923849946496589,-0.2689628673770143,-0.4113866230963449,,0.429718017578125,-0.9169921875,-0.256072998046875
304,17.145,0.014339004885458584,-0.04753094358706045,-0.006756332334961174,-0.1407313138260099,-0.2861828457004789,,0.3005218505859375,-0.9961700439453124,-0.1416015625
305,17.195,0.010543856071467517,-0.03813637137642745,-0.012105033081646899,-0.302539365356849,-0.25482174451447,,0.2653656005859375,-0.959808349609375,-0.304656982421875
306,17.244,0.015066559187721984,-0.05243475043119117,-0.014014495622904521,-0.2582112556266743,-0.2674804378825905,,0.2825469970703125,-0.9833221435546876,-0.2628173828125
307,17.294,0.007713377127851306,-0.031017261068547963,-0.007767313430055961,-0.2429182037991825,-0.2345046404502737,,0.242218017578125,-0.9740142822265624,-0.2439117431640625
308,17.344,-0.0007079086339238927,0.0024174912324484987,0.0006723696102127197,-0.2679562098505577,-0.2715208969151739,,0.27081298828125,-0.9248199462890624,-0.2572174072265625
309,17.394,0.009391380176964004,-0.03434300385483968,-0.004739337706340413,-0.1367045292542386,-0.2614673844714735,,0.2708587646484375,-0.9904937744140624,-0.136688232421875
310,17.444,0.00918758044969381,-0.0273630113393053,-0.005342668976098558,-0.191632841319591,-0.3129864918159312,,0.322174072265625,-0.9595184326171876,-0.187347412109375
311,17.494,0.026311771373941806,-0.0616697989103997,-0.012892572926742396,-0.2046341535737871,-0.3853703575323082,,0.41168212890625,-0.96490478515625,-0.20172119140625
312,17.543,0.03322576006489891,-0.07519693387518422,-0.013987259239028604,-0.1828716739107074,-0.3984301237241636,,0.4316558837890625,-0.9769287109375,-0.1817169189453125
313,17.593,0.045969517978020125,0.005256458612127202,-0.34685338090545453,-0.1578840456576473,-0.3651480357329174,,0.4111175537109375,-0.9140167236328124,-0.49383544921875
314,17.643,0.10875244471162981,-0.10534290570908922,-0.3285611467249483,-0.0461829888335273,-0.3019073453274327,,0.4106597900390625,-1.0576629638671875,-0.372589111328125
315,17.693,0.7238904714692675,-0.2815592835848856,-0.21531650528684795,0.2133472002568127,-0.2012041330229201,,0.9250946044921876,-1.238555908203125,-0.0063323974609375
316,17.743,2.064850490523347,0.05827706440878477,0.31235085763093906,0.6761317036044839,-0.0956567116250905,,2.1605072021484375,-0.6751251220703125,0.985382080078125
317,17.957,2.913916490333893,3.7789420010038715,-2.2406170004006816,0.2716042971200105,-0.1857539198223568,Straight,3.09967041015625,2.833282470703125,-1.9737396240234375
318,18.027,-1.6322399636276144,0.2032177675778133,1.8189490020129768,0.5960819241242862,-0.0112377663619893,,-1.621002197265625,-0.5996551513671875,2.4149932861328125
319,18.077,-0.7512738160667403,1.0123136317814718,-0.3655549105668533,0.4030514510350226,-0.0904919557151778,,-0.6607818603515625,0.10089111328125,0.0358428955078125
320,18.127,-0.8146426973112288,0.8194696815715888,0.5007516542881087,0.4455619129165458,-0.1273105439909163,,-0.6873321533203125,-0.0684967041015625,0.94268798828125
321,18.176,-0.8504116900596521,0.6983707701590964,0.23133868190432733,0.4357025060866966,-0.1793911822471521,,-0.6710205078125,-0.1871185302734375,0.65997314453125
322,18.226,-0.9820280903008477,0.6468101826004519,0.3175028851128214,0.3756489901786281,-0.2493162983086602,,-0.7327117919921875,-0.2506866455078125,0.6812896728515625
323,18.276,-1.1376971295452951,0.4922652128598106,0.4806359669851352,0.3215284692970762,-0.3277148297406076,,-0.8099822998046875,-0.40234375,0.7844085693359375
324,18.326,-1.1494899342235052,0.3778442431003892,0.39991815454165236,0.209109115843479,-0.4254603932078802,,-0.724029541015625,-0.5071258544921875,0.5891571044921875
325,18.376,-0.018557432446854594,-0.018049816701413146,0.018593724380372767,0.7175234754490861,0.5822268693109579,,-0.6007843017578125,-0.5843505859375,0.601959228515625
326,18.426,0.005468478242791841,0.006976119965209193,-0.0037211897665802574,0.4706465721642485,0.5688382292193543,,-0.5633697509765625,-0.71868896484375,0.38336181640625
327,18.475,0.0020650592800177114,0.006809551968774752,-0.003861477774377009,0.4932766831612966,0.2550710407253302,,-0.2530059814453125,-0.83428955078125,0.4730987548828125
328,18.525,0.005989328312284992,0.025385511751534695,-0.006514574868950573,0.2485711583805591,0.222786203312285,,-0.216796875,-0.91888427734375,0.235809326171875
329,18.575,-0.0010765922872198047,-0.012932273111071813,0.002657269938494522,0.2012709222886446,0.0812750922830927,,-0.0823516845703125,-0.989227294921875,0.2032623291015625
330,18.625,-0.0024170271408148064,0.034732514840811524,-0.0008093462179946456,0.0232959397117065,-0.0694031111251898,,0.066986083984375,-0.96258544921875,0.022430419921875
331,18.675,0.0018281024489513048,-0.024683819266405393,-0.007751015511031689,-0.2995889228758172,-0.0704832989182362,,0.0723114013671875,-0.97637939453125,-0.3065948486328125
332,18.725,0.005051978189160006,-0.02570209000839696,-0.0006525845196920545,-0.0253821487158444,-0.1928087395842775,,0.1978607177734375,-1.006622314453125,-0.0255584716796875
333,18.775,-0.000313509214336094,0.0019576860632140036,0.0003957968823071478,-0.1981663972820791,-0.1550681478862111,,0.154754638671875,-0.9663543701171876,-0.19537353515625
334,18.824,-0.01464028281639701,0.05283312753601055,0.015737704091689897,-0.2854795313622223,-0.256675194925772,,0.242034912109375,-0.873443603515625,-0.2601776123046875
335,18.874,-0.0075249802822349166,0.02550236672887829,0.005938614607106429,-0.2267972317214146,-0.2762017380947349,,0.2686767578125,-0.910552978515625,-0.2120361328125
336,18.924,-0.00598834187001801,0.02098140431159312,0.005812089754700822,-0.2669582043666413,-0.265204650463768,,0.25921630859375,-0.9082183837890624,-0.2515869140625
337,18.974,0.00209609476881939,-0.0076163405609801504,-0.002202711621402287,-0.2778231583777273,-0.2555943349186806,,0.2576904296875,-0.93634033203125,-0.2707977294921875
338,19.024,0.013106825053121995,-0.04820789333728037,-0.01105096900126945,-0.2234400638538214,-0.2561650255328155,,0.2692718505859375,-0.9904022216796876,-0.2270355224609375
339,19.074,0.00999644981903558,-0.03632818792635084,-0.008460672880322151,-0.2268252274631105,-0.2588634134622144,,0.26885986328125,-0.9770660400390624,-0.2275543212890625
340,19.123,0.008543767211486003,-0.042000130165560035,-0.007166088720262337,-0.1681900694106406,-0.1966106517338265,,0.2051544189453125,-1.008514404296875,-0.1720733642578125
341,19.173,9.268871505269116e-05,-0.0003411346527932846,-4.1940693325442924e-05,-0.122025911518402,-0.2603748405818223,,0.260467529296875,-0.9586334228515624,-0.11785888671875
342,19.223,-0.008025311163534304,0.03494346956991223,0.008110327520367444,-0.2260887250153347,-0.2183219420229093,,0.210296630859375,-0.9156646728515624,-0.2125244140625
343,19.273,-0.013149267120926303,0.16076663116076695,0.035910518615568904,-0.2179982276541145,-0.0795707759099888,,0.0664215087890625,-0.8120880126953125,-0.181396484375
344,19.323,0.0922748026492286,0.39925816557969185,0.13637647451250534,-0.3232381372756707,0.2136584696414161,,-0.1213836669921875,-0.52520751953125,-0.1793975830078125
345,19.373,0.0037969259665366906,0.0038514297198379843,-0.003775043418743129,0.699989331490233,0.5756810812399742,,-0.5718841552734375,-0.5800933837890625,0.5685882568359375
346,19.422,-0.10595798863320027,-0.5053409311149765,0.3030732892258847,0.7144446618894529,0.6547079049214872,,-0.7606658935546875,-1.0342254638671875,0.843109130859375
347,19.472,0.43054918611423076,-0.5992720525498115,0.7048404883003259,0.68322136485824,0.7125926431454808,,-0.28204345703125,-1.111572265625,1.184173583984375
348,19.522,0.569580899482068,-1.0458559925214443,0.2742310353130029,0.6333528758300483,0.7668007481148805,,-0.1972198486328125,-1.5425872802734375,0.6807708740234375
349,19.861,-1.4864045986542997,2.8456027601167,0.07963008827630902,0.6903442795996174,0.6313779941191379,Straight,-2.1177825927734375,2.2845611572265625,0.6149749755859375
350,19.911,-0.2351855175915707,1.1993660920711013,0.012031344187262594,0.685354020998725,0.5481091601428043,,-0.783294677734375,0.5902862548828125,0.58526611328125
351,19.961,-0.697418378185652,0.22804064134309376,-0.5483975310057218,0.6892838287902516,0.5303800837284105,,-1.2277984619140625,-0.3861541748046875,0.03594970703125
352,20.011,-0.5915895394965562,0.1919833069045772,0.021627130711766807,0.6624603777473435,0.5024198599175063,,-1.0940093994140625,-0.4557037353515625,0.5944061279296875
353,20.06,-0.5097461730302827,0.24347953424324165,-0.1678283559036493,0.6119406017998164,0.4537090271650297,,-0.9634552001953124,-0.461334228515625,0.37750244140625
354,20.11,-0.3727782858591402,0.265402321974361,0.024813633535793134,0.5444512832819841,0.3849274026174223,,-0.7577056884765625,-0.508758544921875,0.527313232421875
355,20.16,-0.020751884595115233,-0.014835139723552992,0.009143840665972125,0.5247017964521346,0.7657929152095723,,-0.7865447998046875,-0.562286376953125,0.3465728759765625
356,20.21,0.07964179130247262,0.11071888562972321,-0.03618349435504886,0.3106375256867172,0.5644135198180976,,-0.484771728515625,-0.6739349365234375,0.220245361328125
357,20.26,0.06295300458635539,0.10883658540428465,-0.010949115207429319,0.100096177681283,0.4988050553676054,,-0.43585205078125,-0.7535247802734375,0.0758056640625
358,20.31,0.0234084683641404,0.07712132183585241,-0.012229011821127456,0.1566117960107036,0.2871566373094529,,-0.2637481689453125,-0.8689422607421875,0.137786865234375
359,20.359,-0.0060788412343679155,-0.016490939004212612,-0.00017632434901985322,-0.0106915846859927,0.3458498697031321,,-0.3519287109375,-0.9547271728515624,-0.0102081298828125
360,20.409,0.004504470305082275,0.013921493534924445,0.0032709320050772484,-0.2287270086593703,0.3004334253832073,,-0.295928955078125,-0.9145965576171876,-0.2148895263671875
361,20.459,0.010998724866889992,0.07493345731693779,0.02966588878849913,-0.3680991758467971,0.1352205266247025,,-0.1242218017578125,-0.8463134765625,-0.335052490234375
362,20.509,-0.09229568227750831,0.08874275678936872,-0.29183830969947594,-0.4639809929734375,0.0592240931131167,,-0.151519775390625,-0.7955474853515625,-0.7550048828125
363,20.559,0.1251282204076968,0.03182519202739398,-0.22410225415452628,-0.496063114231355,0.0068268288061343,,0.1183013916015625,-0.8364410400390625,-0.72015380859375
364,20.609,-0.0059179111834354,-0.1724527179668025,-0.04491325792276896,-0.4968724304487292,-0.0183233066912479,,0.0124053955078125,-1.040130615234375,-0.5417022705078125
365,20.658,0.1199854747864095,-0.1417043360242215,0.011929692330460151,-0.5376766887781361,-0.060876951971403,,0.1808624267578125,-0.9832916259765624,-0.524749755859375
366,20.708,0.2421591113030234,-0.1704576847525585,0.10949693210429734,-0.5562736551187774,-0.0926950146735391,,0.3348541259765625,-0.9978790283203124,-0.4443817138671875
367,20.758,0.018369520138451806,-0.07324652239508189,-0.02873032189065955,-0.3651557751699574,-0.2273580189240482,,0.2457275390625,-0.9798126220703124,-0.3843231201171875
368,20.808,0.001991409596120708,-0.005501231202648671,-0.0026800269558492906,-0.4379614936986598,-0.3094557339585668,,0.3114471435546875,-0.8603668212890625,-0.4191436767578125
369,20.858,0.00224376506204782,-0.007695239114681951,-0.0023618712707921263,-0.2934168187600552,-0.2685081880629522,,0.270751953125,-0.9285736083984376,-0.285003662109375
370,20.908,0.01192551655284041,-0.054047891587119756,-0.01662986397735483,-0.2940817050206638,-0.2063514609862221,,0.2182769775390625,-0.9892578125,-0.30438232421875
371,20.958,-0.046412427535806294,-0.07247771652762958,-0.27838224809191847,-0.2552781781485266,-0.2288465095670563,,0.18243408203125,-1.0136871337890625,-0.526885986328125
372,21.007,-0.017103567781334705,-0.09943563701206237,-0.09268028153486257,-0.1903462321365076,-0.2497848421953972,,0.2326812744140625,-1.0500335693359375,-0.2769927978515625
373,21.057,-0.14271471220655219,-0.1341136971087371,-0.051024375347145934,-0.1536688369982072,-0.2677757473628022,,0.12506103515625,-1.086151123046875,-0.1990814208984375
374,21.107,-0.0048508566625407035,0.020098583169412043,0.002332535447517728,-0.1152809745698242,-0.2331375998266032,,0.2282867431640625,-0.94586181640625,-0.109771728515625
375,21.157,-0.0014713963159202065,0.01889101862879161,0.005599856338620479,-0.2842057841449497,-0.0744694431909202,,0.072998046875,-0.9372100830078124,-0.2778167724609375
376,21.207,-0.005378872157599003,0.14402641382302783,0.02366599355900434,-0.162142682712826,-0.0368272364154115,,0.0314483642578125,-0.842071533203125,-0.13836669921875
377,21.257,-0.016454756941322493,0.19116353926407126,0.05637871171759101,-0.2828780684283268,-0.0822811729569475,,0.065826416015625,-0.764739990234375,-0.2255401611328125
378,21.306,0.002227739829265,0.09013693364271325,0.024630999129218567,-0.2635974820251326,0.023834185141765,,-0.0216064453125,-0.8742218017578125,-0.2388916015625
379,21.356,-0.001946419914881703,0.021979666120769292,0.006136838092528352,-0.2689200256893249,-0.0849847499930067,,0.083038330078125,-0.9376983642578124,-0.261810302734375
380,21.406,-0.000846178998556199,0.0119621707349854,0.005332145214643258,-0.4071344695729337,-0.0644753293891812,,0.063629150390625,-0.899505615234375,-0.4009552001953125
381,21.456,0.0005124946375048012,-0.001935115594668968,-0.0005403105428551935,-0.268927467271251,-0.2471681694249952,,0.2476806640625,-0.935211181640625,-0.2611236572265625
382,21.506,0.03877790229164421,-0.11562664953522173,0.0902606231038715,-0.2370830261956314,-0.2325996611849183,,0.2713775634765625,-1.0604705810546875,-0.14031982421875
383,21.556,0.2147164738049574,-0.08120431892623559,0.1149929980946614,-0.2092636680245828,-0.2433065974841051,,0.4580230712890625,-1.0296783447265625,-0.087982177734375
384,21.605,0.1930788568916227,-0.10200018206886918,0.042119382589102805,-0.1718313266624845,-0.2318326421318148,,0.4249114990234375,-1.0602874755859375,-0.125030517578125
385,21.655,0.04404721923761168,-0.08577291491681893,-0.0006723024871448744,-0.0078379268871464,-0.4568072729498883,,0.5008544921875,-0.975311279296875,-0.0076446533203125
386,21.705,0.017975530532725603,-0.03402648606194747,-0.0018238178415557124,-0.0535231171737982,-0.4665825749360244,,0.48455810546875,-0.917236328125,-0.049163818359375
387,21.755,0.03188314853515728,-0.05773879223214207,0.002111185286524757,0.0365399991400803,-0.4831467586914052,,0.5150299072265625,-0.9326934814453124,0.0341033935546875
388,21.805,0.3173289477628125,-0.11940462816314557,-0.11152615354311003,0.1304974969613674,-0.46039627196375,,0.7777252197265625,-0.9995269775390624,0.0043182373046875
389,21.855,0.885897559275109,-0.3814206724532866,-0.043619550377666544,0.2429435423192611,-0.3948794182639534,,1.2807769775390625,-1.2726287841796875,0.1795806884765625
390,22.094,1.4770133958270493,3.016958864890296,-1.715630329175221,-0.1072149063377345,-0.4432594313213882,,1.9202728271484375,2.125732421875,-1.811737060546875
391,22.144,-1.6649298859651058,0.07052312640976288,1.930029502292926,0.0480929789960686,-0.3798499299104184,,-1.2850799560546875,-0.85345458984375,1.974517822265625
